"rt","stimulus","key_press","screenid","trial_type","trial_index","time_elapsed","internal_node_id","subject","date","final_height_px","final_width_px","scale_factor","value","attr_trial","attractiveness_face","screen_id","attractiveness_rating"
"72001.30000000075","Welcome to the experiment. <br> We will start with a quick calibration of the screen. <br> Press any key to begin","13","welcome","html-keyboard-response","0","72016","0.0-0.0","1212121212121212121212121212121212121212121","2023-11-2 14:59","","","","","","","",""
"","","","","resize","1","75651","0.0-1.0","1212121212121212121212121212121212121212121","2023-11-2 14:59","","307","0.6064197530864197","","","","",""
"","","","","call-function","2","75653","0.0-2.0","1212121212121212121212121212121212121212121","2023-11-2 14:59","","","","","","","",""
"1608","<div style='width: 70%;margin:0 auto;'><h1>First part: Attractiveness Rating</h1><p>In this first part of the experiment you will be asked to rate how attractive you find different faces. Each face will appear only for a limited time (3 seconds) and you will then be able to give your rating on scale from 0-100.<p>Try to pay attention so that you do not miss the faces!</p><p>Press any key when you are ready</p></div>","32","instruction_attractiveness","html-keyboard-response","3","77263","0.0-3.0","1212121212121212121212121212121212121212121","2023-11-2 14:59","","","","","","","",""
"null","<div class='conf_div'><p  style=' margin-bottom:28px; margin-top:0px; ' ><strong>How attractive do you think this face is?</strong></p><img class='central_stim' src='img/3 BF-039.jpg' </img><p  style=' margin-top: -60px;' ><strong><br><br><br><br><br><br><br></strong></p></div>","null","exposition_attractiveness","html-keyboard-response","4","80275","0.0-4.0","1212121212121212121212121212121212121212121","2023-11-2 14:59","","","","","0","img/3 BF-039.jpg","",""
"2472.5","<div class='conf_div'><p style='margin-bottom: 28px; margin-top: 0px;'><strong>How attractive do you think this face is?</strong></p><img class='central_stim' src='img/cardback2o.jpg'></img><div id='mySlider5' style='width: 100%; text-align: center;'><table style='text-align: center; margin: auto; padding: 0;'><tr><td class='rightTdVas'>0<br>Very<br>unattractive</td><td><div style='position: relative;'><img src='responseScales/vas_banded.png' id='customSlider2' width='600px' height='60px'><div id='customTick2' class='customTick2'><img id='customTick2_fig' src='responseScales/tick2.png' width='25px' height='25px'></div></div></td><td class='rightTdVas'>100<br>Very<br>attractive</td></tr><tr><td colspan='3'><div id='mySlider5_value'></div></td></tr></table></div></div>","","","html-vas-custom","5","82750","0.0-5.0","1212121212121212121212121212121212121212121","2023-11-2 14:59","","","","","0","","attractiveness_scale","61"
"null","<div class='conf_div'><p  style=' margin-bottom:28px; margin-top:0px; ' ><strong>How attractive do you think this face is?</strong></p><img class='central_stim' src='img/16 BF-208.jpg' </img><p  style=' margin-top: -60px;' ><strong><br><br><br><br><br><br><br></strong></p></div>","null","exposition_attractiveness","html-keyboard-response","6","85753","0.0-6.0","1212121212121212121212121212121212121212121","2023-11-2 14:59","","","","","1","img/16 BF-208.jpg","",""
"2411","<div class='conf_div'><p style='margin-bottom: 28px; margin-top: 0px;'><strong>How attractive do you think this face is?</strong></p><img class='central_stim' src='img/cardback2o.jpg'></img><div id='mySlider5' style='width: 100%; text-align: center;'><table style='text-align: center; margin: auto; padding: 0;'><tr><td class='rightTdVas'>0<br>Very<br>unattractive</td><td><div style='position: relative;'><img src='responseScales/vas_banded.png' id='customSlider2' width='600px' height='60px'><div id='customTick2' class='customTick2'><img id='customTick2_fig' src='responseScales/tick2.png' width='25px' height='25px'></div></div></td><td class='rightTdVas'>100<br>Very<br>attractive</td></tr><tr><td colspan='3'><div id='mySlider5_value'></div></td></tr></table></div></div>","","","html-vas-custom","7","88166","0.0-7.0","1212121212121212121212121212121212121212121","2023-11-2 14:59","","","","","1","","attractiveness_scale","70"
"null","<div class='conf_div'><p  style=' margin-bottom:28px; margin-top:0px; ' ><strong>How attractive do you think this face is?</strong></p><img class='central_stim' src='img/10 WF-220.jpg' </img><p  style=' margin-top: -60px;' ><strong><br><br><br><br><br><br><br></strong></p></div>","null","exposition_attractiveness","html-keyboard-response","8","91174","0.0-8.0","1212121212121212121212121212121212121212121","2023-11-2 14:59","","","","","2","img/10 WF-220.jpg","",""
"2909.5999999996275","<div class='conf_div'><p style='margin-bottom: 28px; margin-top: 0px;'><strong>How attractive do you think this face is?</strong></p><img class='central_stim' src='img/cardback2o.jpg'></img><div id='mySlider5' style='width: 100%; text-align: center;'><table style='text-align: center; margin: auto; padding: 0;'><tr><td class='rightTdVas'>0<br>Very<br>unattractive</td><td><div style='position: relative;'><img src='responseScales/vas_banded.png' id='customSlider2' width='600px' height='60px'><div id='customTick2' class='customTick2'><img id='customTick2_fig' src='responseScales/tick2.png' width='25px' height='25px'></div></div></td><td class='rightTdVas'>100<br>Very<br>attractive</td></tr><tr><td colspan='3'><div id='mySlider5_value'></div></td></tr></table></div></div>","","","html-vas-custom","9","94085","0.0-9.0","1212121212121212121212121212121212121212121","2023-11-2 14:59","","","","","2","","attractiveness_scale","75"
"null","<div class='conf_div'><p  style=' margin-bottom:28px; margin-top:0px; ' ><strong>How attractive do you think this face is?</strong></p><img class='central_stim' src='img/16 BF-249.jpg' </img><p  style=' margin-top: -60px;' ><strong><br><br><br><br><br><br><br></strong></p></div>","null","exposition_attractiveness","html-keyboard-response","10","97092","0.0-10.0","1212121212121212121212121212121212121212121","2023-11-2 14:59","","","","","3","img/16 BF-249.jpg","",""
"2886.7000000011176","<div class='conf_div'><p style='margin-bottom: 28px; margin-top: 0px;'><strong>How attractive do you think this face is?</strong></p><img class='central_stim' src='img/cardback2o.jpg'></img><div id='mySlider5' style='width: 100%; text-align: center;'><table style='text-align: center; margin: auto; padding: 0;'><tr><td class='rightTdVas'>0<br>Very<br>unattractive</td><td><div style='position: relative;'><img src='responseScales/vas_banded.png' id='customSlider2' width='600px' height='60px'><div id='customTick2' class='customTick2'><img id='customTick2_fig' src='responseScales/tick2.png' width='25px' height='25px'></div></div></td><td class='rightTdVas'>100<br>Very<br>attractive</td></tr><tr><td colspan='3'><div id='mySlider5_value'></div></td></tr></table></div></div>","","","html-vas-custom","11","99981","0.0-11.0","1212121212121212121212121212121212121212121","2023-11-2 14:59","","","","","3","","attractiveness_scale","76"
"null","<div class='conf_div'><p  style=' margin-bottom:28px; margin-top:0px; ' ><strong>How attractive do you think this face is?</strong></p><img class='central_stim' src='img/2 AF-230.jpg' </img><p  style=' margin-top: -60px;' ><strong><br><br><br><br><br><br><br></strong></p></div>","null","exposition_attractiveness","html-keyboard-response","12","102985","0.0-12.0","1212121212121212121212121212121212121212121","2023-11-2 14:59","","","","","4","img/2 AF-230.jpg","",""
"8139.5","<div class='conf_div'><p style='margin-bottom: 28px; margin-top: 0px;'><strong>How attractive do you think this face is?</strong></p><img class='central_stim' src='img/cardback2o.jpg'></img><div id='mySlider5' style='width: 100%; text-align: center;'><table style='text-align: center; margin: auto; padding: 0;'><tr><td class='rightTdVas'>0<br>Very<br>unattractive</td><td><div style='position: relative;'><img src='responseScales/vas_banded.png' id='customSlider2' width='600px' height='60px'><div id='customTick2' class='customTick2'><img id='customTick2_fig' src='responseScales/tick2.png' width='25px' height='25px'></div></div></td><td class='rightTdVas'>100<br>Very<br>attractive</td></tr><tr><td colspan='3'><div id='mySlider5_value'></div></td></tr></table></div></div>","","","html-vas-custom","13","111127","0.0-13.0","1212121212121212121212121212121212121212121","2023-11-2 14:59","","","","","4","","attractiveness_scale","73"
"null","<div class='conf_div'><p  style=' margin-bottom:28px; margin-top:0px; ' ><strong>How attractive do you think this face is?</strong></p><img class='central_stim' src='img/10 WF-208.jpg' </img><p  style=' margin-top: -60px;' ><strong><br><br><br><br><br><br><br></strong></p></div>","null","exposition_attractiveness","html-keyboard-response","14","114138","0.0-14.0","1212121212121212121212121212121212121212121","2023-11-2 14:59","","","","","5","img/10 WF-208.jpg","",""
"2461.5999999996275","<div class='conf_div'><p style='margin-bottom: 28px; margin-top: 0px;'><strong>How attractive do you think this face is?</strong></p><img class='central_stim' src='img/cardback2o.jpg'></img><div id='mySlider5' style='width: 100%; text-align: center;'><table style='text-align: center; margin: auto; padding: 0;'><tr><td class='rightTdVas'>0<br>Very<br>unattractive</td><td><div style='position: relative;'><img src='responseScales/vas_banded.png' id='customSlider2' width='600px' height='60px'><div id='customTick2' class='customTick2'><img id='customTick2_fig' src='responseScales/tick2.png' width='25px' height='25px'></div></div></td><td class='rightTdVas'>100<br>Very<br>attractive</td></tr><tr><td colspan='3'><div id='mySlider5_value'></div></td></tr></table></div></div>","","","html-vas-custom","15","116601","0.0-15.0","1212121212121212121212121212121212121212121","2023-11-2 14:59","","","","","5","","attractiveness_scale","61"
"null","<div class='conf_div'><p  style=' margin-bottom:28px; margin-top:0px; ' ><strong>How attractive do you think this face is?</strong></p><img class='central_stim' src='img/7 LF-219.jpg' </img><p  style=' margin-top: -60px;' ><strong><br><br><br><br><br><br><br></strong></p></div>","null","exposition_attractiveness","html-keyboard-response","16","119603","0.0-16.0","1212121212121212121212121212121212121212121","2023-11-2 14:59","","","","","6","img/7 LF-219.jpg","",""
"2190.9000000003725","<div class='conf_div'><p style='margin-bottom: 28px; margin-top: 0px;'><strong>How attractive do you think this face is?</strong></p><img class='central_stim' src='img/cardback2o.jpg'></img><div id='mySlider5' style='width: 100%; text-align: center;'><table style='text-align: center; margin: auto; padding: 0;'><tr><td class='rightTdVas'>0<br>Very<br>unattractive</td><td><div style='position: relative;'><img src='responseScales/vas_banded.png' id='customSlider2' width='600px' height='60px'><div id='customTick2' class='customTick2'><img id='customTick2_fig' src='responseScales/tick2.png' width='25px' height='25px'></div></div></td><td class='rightTdVas'>100<br>Very<br>attractive</td></tr><tr><td colspan='3'><div id='mySlider5_value'></div></td></tr></table></div></div>","","","html-vas-custom","17","121796","0.0-17.0","1212121212121212121212121212121212121212121","2023-11-2 14:59","","","","","6","","attractiveness_scale","73"
"null","<div class='conf_div'><p  style=' margin-bottom:28px; margin-top:0px; ' ><strong>How attractive do you think this face is?</strong></p><img class='central_stim' src='img/17 WF-024.jpg' </img><p  style=' margin-top: -60px;' ><strong><br><br><br><br><br><br><br></strong></p></div>","null","exposition_attractiveness","html-keyboard-response","18","124804","0.0-18.0","1212121212121212121212121212121212121212121","2023-11-2 14:59","","","","","7","img/17 WF-024.jpg","",""
"3954.800000000745","<div class='conf_div'><p style='margin-bottom: 28px; margin-top: 0px;'><strong>How attractive do you think this face is?</strong></p><img class='central_stim' src='img/cardback2o.jpg'></img><div id='mySlider5' style='width: 100%; text-align: center;'><table style='text-align: center; margin: auto; padding: 0;'><tr><td class='rightTdVas'>0<br>Very<br>unattractive</td><td><div style='position: relative;'><img src='responseScales/vas_banded.png' id='customSlider2' width='600px' height='60px'><div id='customTick2' class='customTick2'><img id='customTick2_fig' src='responseScales/tick2.png' width='25px' height='25px'></div></div></td><td class='rightTdVas'>100<br>Very<br>attractive</td></tr><tr><td colspan='3'><div id='mySlider5_value'></div></td></tr></table></div></div>","","","html-vas-custom","19","128762","0.0-19.0","1212121212121212121212121212121212121212121","2023-11-2 14:59","","","","","7","","attractiveness_scale","80"
"null","<div class='conf_div'><p  style=' margin-bottom:28px; margin-top:0px; ' ><strong>How attractive do you think this face is?</strong></p><img class='central_stim' src='img/20 AM-230.jpg' </img><p  style=' margin-top: -60px;' ><strong><br><br><br><br><br><br><br></strong></p></div>","null","exposition_attractiveness","html-keyboard-response","20","131775","0.0-20.0","1212121212121212121212121212121212121212121","2023-11-2 14:59","","","","","8","img/20 AM-230.jpg","",""
"2634.9000000003725","<div class='conf_div'><p style='margin-bottom: 28px; margin-top: 0px;'><strong>How attractive do you think this face is?</strong></p><img class='central_stim' src='img/cardback2o.jpg'></img><div id='mySlider5' style='width: 100%; text-align: center;'><table style='text-align: center; margin: auto; padding: 0;'><tr><td class='rightTdVas'>0<br>Very<br>unattractive</td><td><div style='position: relative;'><img src='responseScales/vas_banded.png' id='customSlider2' width='600px' height='60px'><div id='customTick2' class='customTick2'><img id='customTick2_fig' src='responseScales/tick2.png' width='25px' height='25px'></div></div></td><td class='rightTdVas'>100<br>Very<br>attractive</td></tr><tr><td colspan='3'><div id='mySlider5_value'></div></td></tr></table></div></div>","","","html-vas-custom","21","134414","0.0-21.0","1212121212121212121212121212121212121212121","2023-11-2 14:59","","","","","8","","attractiveness_scale","45"
"null","<div class='conf_div'><p  style=' margin-bottom:28px; margin-top:0px; ' ><strong>How attractive do you think this face is?</strong></p><img class='central_stim' src='img/14 AM-211.jpg' </img><p  style=' margin-top: -60px;' ><strong><br><br><br><br><br><br><br></strong></p></div>","null","exposition_attractiveness","html-keyboard-response","22","137428","0.0-22.0","1212121212121212121212121212121212121212121","2023-11-2 14:59","","","","","9","img/14 AM-211.jpg","",""
"2581.5","<div class='conf_div'><p style='margin-bottom: 28px; margin-top: 0px;'><strong>How attractive do you think this face is?</strong></p><img class='central_stim' src='img/cardback2o.jpg'></img><div id='mySlider5' style='width: 100%; text-align: center;'><table style='text-align: center; margin: auto; padding: 0;'><tr><td class='rightTdVas'>0<br>Very<br>unattractive</td><td><div style='position: relative;'><img src='responseScales/vas_banded.png' id='customSlider2' width='600px' height='60px'><div id='customTick2' class='customTick2'><img id='customTick2_fig' src='responseScales/tick2.png' width='25px' height='25px'></div></div></td><td class='rightTdVas'>100<br>Very<br>attractive</td></tr><tr><td colspan='3'><div id='mySlider5_value'></div></td></tr></table></div></div>","","","html-vas-custom","23","140011","0.0-23.0","1212121212121212121212121212121212121212121","2023-11-2 14:59","","","","","9","","attractiveness_scale","82"
"null","<div class='conf_div'><p  style=' margin-bottom:28px; margin-top:0px; ' ><strong>How attractive do you think this face is?</strong></p><img class='central_stim' src='img/7 LF-254.jpg' </img><p  style=' margin-top: -60px;' ><strong><br><br><br><br><br><br><br></strong></p></div>","null","exposition_attractiveness","html-keyboard-response","24","143028","0.0-24.0","1212121212121212121212121212121212121212121","2023-11-2 14:59","","","","","10","img/7 LF-254.jpg","",""
"3736.5","<div class='conf_div'><p style='margin-bottom: 28px; margin-top: 0px;'><strong>How attractive do you think this face is?</strong></p><img class='central_stim' src='img/cardback2o.jpg'></img><div id='mySlider5' style='width: 100%; text-align: center;'><table style='text-align: center; margin: auto; padding: 0;'><tr><td class='rightTdVas'>0<br>Very<br>unattractive</td><td><div style='position: relative;'><img src='responseScales/vas_banded.png' id='customSlider2' width='600px' height='60px'><div id='customTick2' class='customTick2'><img id='customTick2_fig' src='responseScales/tick2.png' width='25px' height='25px'></div></div></td><td class='rightTdVas'>100<br>Very<br>attractive</td></tr><tr><td colspan='3'><div id='mySlider5_value'></div></td></tr></table></div></div>","","","html-vas-custom","25","146767","0.0-25.0","1212121212121212121212121212121212121212121","2023-11-2 14:59","","","","","10","","attractiveness_scale","72"
"null","<div class='conf_div'><p  style=' margin-bottom:28px; margin-top:0px; ' ><strong>How attractive do you think this face is?</strong></p><img class='central_stim' src='img/1 AF-224.jpg' </img><p  style=' margin-top: -60px;' ><strong><br><br><br><br><br><br><br></strong></p></div>","null","exposition_attractiveness","html-keyboard-response","26","149771","0.0-26.0","1212121212121212121212121212121212121212121","2023-11-2 14:59","","","","","11","img/1 AF-224.jpg","",""
"6948.4000000003725","<div class='conf_div'><p style='margin-bottom: 28px; margin-top: 0px;'><strong>How attractive do you think this face is?</strong></p><img class='central_stim' src='img/cardback2o.jpg'></img><div id='mySlider5' style='width: 100%; text-align: center;'><table style='text-align: center; margin: auto; padding: 0;'><tr><td class='rightTdVas'>0<br>Very<br>unattractive</td><td><div style='position: relative;'><img src='responseScales/vas_banded.png' id='customSlider2' width='600px' height='60px'><div id='customTick2' class='customTick2'><img id='customTick2_fig' src='responseScales/tick2.png' width='25px' height='25px'></div></div></td><td class='rightTdVas'>100<br>Very<br>attractive</td></tr><tr><td colspan='3'><div id='mySlider5_value'></div></td></tr></table></div></div>","","","html-vas-custom","27","156721","0.0-27.0","1212121212121212121212121212121212121212121","2023-11-2 14:59","","","","","11","","attractiveness_scale","79"
"null","<div class='conf_div'><p  style=' margin-bottom:28px; margin-top:0px; ' ><strong>How attractive do you think this face is?</strong></p><img class='central_stim' src='img/8 LM-210.jpg' </img><p  style=' margin-top: -60px;' ><strong><br><br><br><br><br><br><br></strong></p></div>","null","exposition_attractiveness","html-keyboard-response","28","159726","0.0-28.0","1212121212121212121212121212121212121212121","2023-11-2 14:59","","","","","12","img/8 LM-210.jpg","",""
"3259.4000000003725","<div class='conf_div'><p style='margin-bottom: 28px; margin-top: 0px;'><strong>How attractive do you think this face is?</strong></p><img class='central_stim' src='img/cardback2o.jpg'></img><div id='mySlider5' style='width: 100%; text-align: center;'><table style='text-align: center; margin: auto; padding: 0;'><tr><td class='rightTdVas'>0<br>Very<br>unattractive</td><td><div style='position: relative;'><img src='responseScales/vas_banded.png' id='customSlider2' width='600px' height='60px'><div id='customTick2' class='customTick2'><img id='customTick2_fig' src='responseScales/tick2.png' width='25px' height='25px'></div></div></td><td class='rightTdVas'>100<br>Very<br>attractive</td></tr><tr><td colspan='3'><div id='mySlider5_value'></div></td></tr></table></div></div>","","","html-vas-custom","29","162989","0.0-29.0","1212121212121212121212121212121212121212121","2023-11-2 14:59","","","","","12","","attractiveness_scale","38"
"null","<div class='conf_div'><p  style=' margin-bottom:28px; margin-top:0px; ' ><strong>How attractive do you think this face is?</strong></p><img class='central_stim' src='img/19 BM-239.jpg' </img><p  style=' margin-top: -60px;' ><strong><br><br><br><br><br><br><br></strong></p></div>","null","exposition_attractiveness","html-keyboard-response","30","165996","0.0-30.0","1212121212121212121212121212121212121212121","2023-11-2 14:59","","","","","13","img/19 BM-239.jpg","",""
"7975.299999998882","<div class='conf_div'><p style='margin-bottom: 28px; margin-top: 0px;'><strong>How attractive do you think this face is?</strong></p><img class='central_stim' src='img/cardback2o.jpg'></img><div id='mySlider5' style='width: 100%; text-align: center;'><table style='text-align: center; margin: auto; padding: 0;'><tr><td class='rightTdVas'>0<br>Very<br>unattractive</td><td><div style='position: relative;'><img src='responseScales/vas_banded.png' id='customSlider2' width='600px' height='60px'><div id='customTick2' class='customTick2'><img id='customTick2_fig' src='responseScales/tick2.png' width='25px' height='25px'></div></div></td><td class='rightTdVas'>100<br>Very<br>attractive</td></tr><tr><td colspan='3'><div id='mySlider5_value'></div></td></tr></table></div></div>","","","html-vas-custom","31","173974","0.0-31.0","1212121212121212121212121212121212121212121","2023-11-2 14:59","","","","","13","","attractiveness_scale","75"
"null","<div class='conf_div'><p  style=' margin-bottom:28px; margin-top:0px; ' ><strong>How attractive do you think this face is?</strong></p><img class='central_stim' src='img/9 LM-226.jpg' </img><p  style=' margin-top: -60px;' ><strong><br><br><br><br><br><br><br></strong></p></div>","null","exposition_attractiveness","html-keyboard-response","32","176983","0.0-32.0","1212121212121212121212121212121212121212121","2023-11-2 14:59","","","","","14","img/9 LM-226.jpg","",""
"1883.8999999985099","<div class='conf_div'><p style='margin-bottom: 28px; margin-top: 0px;'><strong>How attractive do you think this face is?</strong></p><img class='central_stim' src='img/cardback2o.jpg'></img><div id='mySlider5' style='width: 100%; text-align: center;'><table style='text-align: center; margin: auto; padding: 0;'><tr><td class='rightTdVas'>0<br>Very<br>unattractive</td><td><div style='position: relative;'><img src='responseScales/vas_banded.png' id='customSlider2' width='600px' height='60px'><div id='customTick2' class='customTick2'><img id='customTick2_fig' src='responseScales/tick2.png' width='25px' height='25px'></div></div></td><td class='rightTdVas'>100<br>Very<br>attractive</td></tr><tr><td colspan='3'><div id='mySlider5_value'></div></td></tr></table></div></div>","","","html-vas-custom","33","178870","0.0-33.0","1212121212121212121212121212121212121212121","2023-11-2 14:59","","","","","14","","attractiveness_scale","88"
"null","<div class='conf_div'><p  style=' margin-bottom:28px; margin-top:0px; ' ><strong>How attractive do you think this face is?</strong></p><img class='central_stim' src='img/11 WF-031.jpg' </img><p  style=' margin-top: -60px;' ><strong><br><br><br><br><br><br><br></strong></p></div>","null","exposition_attractiveness","html-keyboard-response","34","181873","0.0-34.0","1212121212121212121212121212121212121212121","2023-11-2 14:59","","","","","15","img/11 WF-031.jpg","",""
"2687.7999999988824","<div class='conf_div'><p style='margin-bottom: 28px; margin-top: 0px;'><strong>How attractive do you think this face is?</strong></p><img class='central_stim' src='img/cardback2o.jpg'></img><div id='mySlider5' style='width: 100%; text-align: center;'><table style='text-align: center; margin: auto; padding: 0;'><tr><td class='rightTdVas'>0<br>Very<br>unattractive</td><td><div style='position: relative;'><img src='responseScales/vas_banded.png' id='customSlider2' width='600px' height='60px'><div id='customTick2' class='customTick2'><img id='customTick2_fig' src='responseScales/tick2.png' width='25px' height='25px'></div></div></td><td class='rightTdVas'>100<br>Very<br>attractive</td></tr><tr><td colspan='3'><div id='mySlider5_value'></div></td></tr></table></div></div>","","","html-vas-custom","35","184564","0.0-35.0","1212121212121212121212121212121212121212121","2023-11-2 14:59","","","","","15","","attractiveness_scale","36"
"null","<div class='conf_div'><p  style=' margin-bottom:28px; margin-top:0px; ' ><strong>How attractive do you think this face is?</strong></p><img class='central_stim' src='img/20 AM-206.jpg' </img><p  style=' margin-top: -60px;' ><strong><br><br><br><br><br><br><br></strong></p></div>","null","exposition_attractiveness","html-keyboard-response","36","187567","0.0-36.0","1212121212121212121212121212121212121212121","2023-11-2 14:59","","","","","16","img/20 AM-206.jpg","",""
"9840.199999999255","<div class='conf_div'><p style='margin-bottom: 28px; margin-top: 0px;'><strong>How attractive do you think this face is?</strong></p><img class='central_stim' src='img/cardback2o.jpg'></img><div id='mySlider5' style='width: 100%; text-align: center;'><table style='text-align: center; margin: auto; padding: 0;'><tr><td class='rightTdVas'>0<br>Very<br>unattractive</td><td><div style='position: relative;'><img src='responseScales/vas_banded.png' id='customSlider2' width='600px' height='60px'><div id='customTick2' class='customTick2'><img id='customTick2_fig' src='responseScales/tick2.png' width='25px' height='25px'></div></div></td><td class='rightTdVas'>100<br>Very<br>attractive</td></tr><tr><td colspan='3'><div id='mySlider5_value'></div></td></tr></table></div></div>","","","html-vas-custom","37","197410","0.0-37.0","1212121212121212121212121212121212121212121","2023-11-2 14:59","","","","","16","","attractiveness_scale","71"
"null","<div class='conf_div'><p  style=' margin-bottom:28px; margin-top:0px; ' ><strong>How attractive do you think this face is?</strong></p><img class='central_stim' src='img/12 WM-011.jpg' </img><p  style=' margin-top: -60px;' ><strong><br><br><br><br><br><br><br></strong></p></div>","null","exposition_attractiveness","html-keyboard-response","38","200423","0.0-38.0","1212121212121212121212121212121212121212121","2023-11-2 14:59","","","","","17","img/12 WM-011.jpg","",""
"2828.199999999255","<div class='conf_div'><p style='margin-bottom: 28px; margin-top: 0px;'><strong>How attractive do you think this face is?</strong></p><img class='central_stim' src='img/cardback2o.jpg'></img><div id='mySlider5' style='width: 100%; text-align: center;'><table style='text-align: center; margin: auto; padding: 0;'><tr><td class='rightTdVas'>0<br>Very<br>unattractive</td><td><div style='position: relative;'><img src='responseScales/vas_banded.png' id='customSlider2' width='600px' height='60px'><div id='customTick2' class='customTick2'><img id='customTick2_fig' src='responseScales/tick2.png' width='25px' height='25px'></div></div></td><td class='rightTdVas'>100<br>Very<br>attractive</td></tr><tr><td colspan='3'><div id='mySlider5_value'></div></td></tr></table></div></div>","","","html-vas-custom","39","203255","0.0-39.0","1212121212121212121212121212121212121212121","2023-11-2 14:59","","","","","17","","attractiveness_scale","11"
"null","<div class='conf_div'><p  style=' margin-bottom:28px; margin-top:0px; ' ><strong>How attractive do you think this face is?</strong></p><img class='central_stim' src='img/14 AM-218.jpg' </img><p  style=' margin-top: -60px;' ><strong><br><br><br><br><br><br><br></strong></p></div>","null","exposition_attractiveness","html-keyboard-response","40","206259","0.0-40.0","1212121212121212121212121212121212121212121","2023-11-2 14:59","","","","","18","img/14 AM-218.jpg","",""
"2281.5999999996275","<div class='conf_div'><p style='margin-bottom: 28px; margin-top: 0px;'><strong>How attractive do you think this face is?</strong></p><img class='central_stim' src='img/cardback2o.jpg'></img><div id='mySlider5' style='width: 100%; text-align: center;'><table style='text-align: center; margin: auto; padding: 0;'><tr><td class='rightTdVas'>0<br>Very<br>unattractive</td><td><div style='position: relative;'><img src='responseScales/vas_banded.png' id='customSlider2' width='600px' height='60px'><div id='customTick2' class='customTick2'><img id='customTick2_fig' src='responseScales/tick2.png' width='25px' height='25px'></div></div></td><td class='rightTdVas'>100<br>Very<br>attractive</td></tr><tr><td colspan='3'><div id='mySlider5_value'></div></td></tr></table></div></div>","","","html-vas-custom","41","208544","0.0-41.0","1212121212121212121212121212121212121212121","2023-11-2 14:59","","","","","18","","attractiveness_scale","62"
"null","<div class='conf_div'><p  style=' margin-bottom:28px; margin-top:0px; ' ><strong>How attractive do you think this face is?</strong></p><img class='central_stim' src='img/8 LM-243.jpg' </img><p  style=' margin-top: -60px;' ><strong><br><br><br><br><br><br><br></strong></p></div>","null","exposition_attractiveness","html-keyboard-response","42","211550","0.0-42.0","1212121212121212121212121212121212121212121","2023-11-2 14:59","","","","","19","img/8 LM-243.jpg","",""
"2616.800000000745","<div class='conf_div'><p style='margin-bottom: 28px; margin-top: 0px;'><strong>How attractive do you think this face is?</strong></p><img class='central_stim' src='img/cardback2o.jpg'></img><div id='mySlider5' style='width: 100%; text-align: center;'><table style='text-align: center; margin: auto; padding: 0;'><tr><td class='rightTdVas'>0<br>Very<br>unattractive</td><td><div style='position: relative;'><img src='responseScales/vas_banded.png' id='customSlider2' width='600px' height='60px'><div id='customTick2' class='customTick2'><img id='customTick2_fig' src='responseScales/tick2.png' width='25px' height='25px'></div></div></td><td class='rightTdVas'>100<br>Very<br>attractive</td></tr><tr><td colspan='3'><div id='mySlider5_value'></div></td></tr></table></div></div>","","","html-vas-custom","43","214170","0.0-43.0","1212121212121212121212121212121212121212121","2023-11-2 14:59","","","","","19","","attractiveness_scale","44"
"null","<div class='conf_div'><p  style=' margin-bottom:28px; margin-top:0px; ' ><strong>How attractive do you think this face is?</strong></p><img class='central_stim' src='img/9 LM-220.jpg' </img><p  style=' margin-top: -60px;' ><strong><br><br><br><br><br><br><br></strong></p></div>","null","exposition_attractiveness","html-keyboard-response","44","217179","0.0-44.0","1212121212121212121212121212121212121212121","2023-11-2 14:59","","","","","20","img/9 LM-220.jpg","",""
"2366.0999999996275","<div class='conf_div'><p style='margin-bottom: 28px; margin-top: 0px;'><strong>How attractive do you think this face is?</strong></p><img class='central_stim' src='img/cardback2o.jpg'></img><div id='mySlider5' style='width: 100%; text-align: center;'><table style='text-align: center; margin: auto; padding: 0;'><tr><td class='rightTdVas'>0<br>Very<br>unattractive</td><td><div style='position: relative;'><img src='responseScales/vas_banded.png' id='customSlider2' width='600px' height='60px'><div id='customTick2' class='customTick2'><img id='customTick2_fig' src='responseScales/tick2.png' width='25px' height='25px'></div></div></td><td class='rightTdVas'>100<br>Very<br>attractive</td></tr><tr><td colspan='3'><div id='mySlider5_value'></div></td></tr></table></div></div>","","","html-vas-custom","45","219548","0.0-45.0","1212121212121212121212121212121212121212121","2023-11-2 14:59","","","","","20","","attractiveness_scale","71"
"null","<div class='conf_div'><p  style=' margin-bottom:28px; margin-top:0px; ' ><strong>How attractive do you think this face is?</strong></p><img class='central_stim' src='img/15 WM-029.jpg' </img><p  style=' margin-top: -60px;' ><strong><br><br><br><br><br><br><br></strong></p></div>","null","exposition_attractiveness","html-keyboard-response","46","222551","0.0-46.0","1212121212121212121212121212121212121212121","2023-11-2 14:59","","","","","21","img/15 WM-029.jpg","",""
"2405.699999999255","<div class='conf_div'><p style='margin-bottom: 28px; margin-top: 0px;'><strong>How attractive do you think this face is?</strong></p><img class='central_stim' src='img/cardback2o.jpg'></img><div id='mySlider5' style='width: 100%; text-align: center;'><table style='text-align: center; margin: auto; padding: 0;'><tr><td class='rightTdVas'>0<br>Very<br>unattractive</td><td><div style='position: relative;'><img src='responseScales/vas_banded.png' id='customSlider2' width='600px' height='60px'><div id='customTick2' class='customTick2'><img id='customTick2_fig' src='responseScales/tick2.png' width='25px' height='25px'></div></div></td><td class='rightTdVas'>100<br>Very<br>attractive</td></tr><tr><td colspan='3'><div id='mySlider5_value'></div></td></tr></table></div></div>","","","html-vas-custom","47","224960","0.0-47.0","1212121212121212121212121212121212121212121","2023-11-2 14:59","","","","","21","","attractiveness_scale","76"
"null","<div class='conf_div'><p  style=' margin-bottom:28px; margin-top:0px; ' ><strong>How attractive do you think this face is?</strong></p><img class='central_stim' src='img/11 WF-230.jpg' </img><p  style=' margin-top: -60px;' ><strong><br><br><br><br><br><br><br></strong></p></div>","null","exposition_attractiveness","html-keyboard-response","48","227971","0.0-48.0","1212121212121212121212121212121212121212121","2023-11-2 14:59","","","","","22","img/11 WF-230.jpg","",""
"2323.199999999255","<div class='conf_div'><p style='margin-bottom: 28px; margin-top: 0px;'><strong>How attractive do you think this face is?</strong></p><img class='central_stim' src='img/cardback2o.jpg'></img><div id='mySlider5' style='width: 100%; text-align: center;'><table style='text-align: center; margin: auto; padding: 0;'><tr><td class='rightTdVas'>0<br>Very<br>unattractive</td><td><div style='position: relative;'><img src='responseScales/vas_banded.png' id='customSlider2' width='600px' height='60px'><div id='customTick2' class='customTick2'><img id='customTick2_fig' src='responseScales/tick2.png' width='25px' height='25px'></div></div></td><td class='rightTdVas'>100<br>Very<br>attractive</td></tr><tr><td colspan='3'><div id='mySlider5_value'></div></td></tr></table></div></div>","","","html-vas-custom","49","230298","0.0-49.0","1212121212121212121212121212121212121212121","2023-11-2 14:59","","","","","22","","attractiveness_scale","80"
"null","<div class='conf_div'><p  style=' margin-bottom:28px; margin-top:0px; ' ><strong>How attractive do you think this face is?</strong></p><img class='central_stim' src='img/3 BF-025.jpg' </img><p  style=' margin-top: -60px;' ><strong><br><br><br><br><br><br><br></strong></p></div>","null","exposition_attractiveness","html-keyboard-response","50","233301","0.0-50.0","1212121212121212121212121212121212121212121","2023-11-2 14:59","","","","","23","img/3 BF-025.jpg","",""
"2906.5","<div class='conf_div'><p style='margin-bottom: 28px; margin-top: 0px;'><strong>How attractive do you think this face is?</strong></p><img class='central_stim' src='img/cardback2o.jpg'></img><div id='mySlider5' style='width: 100%; text-align: center;'><table style='text-align: center; margin: auto; padding: 0;'><tr><td class='rightTdVas'>0<br>Very<br>unattractive</td><td><div style='position: relative;'><img src='responseScales/vas_banded.png' id='customSlider2' width='600px' height='60px'><div id='customTick2' class='customTick2'><img id='customTick2_fig' src='responseScales/tick2.png' width='25px' height='25px'></div></div></td><td class='rightTdVas'>100<br>Very<br>attractive</td></tr><tr><td colspan='3'><div id='mySlider5_value'></div></td></tr></table></div></div>","","","html-vas-custom","51","236210","0.0-51.0","1212121212121212121212121212121212121212121","2023-11-2 14:59","","","","","23","","attractiveness_scale","85"
"null","<div class='conf_div'><p  style=' margin-bottom:28px; margin-top:0px; ' ><strong>How attractive do you think this face is?</strong></p><img class='central_stim' src='img/7 LF-225.jpg' </img><p  style=' margin-top: -60px;' ><strong><br><br><br><br><br><br><br></strong></p></div>","null","exposition_attractiveness","html-keyboard-response","52","239215","0.0-52.0","1212121212121212121212121212121212121212121","2023-11-2 14:59","","","","","24","img/7 LF-225.jpg","",""
"3496.199999999255","<div class='conf_div'><p style='margin-bottom: 28px; margin-top: 0px;'><strong>How attractive do you think this face is?</strong></p><img class='central_stim' src='img/cardback2o.jpg'></img><div id='mySlider5' style='width: 100%; text-align: center;'><table style='text-align: center; margin: auto; padding: 0;'><tr><td class='rightTdVas'>0<br>Very<br>unattractive</td><td><div style='position: relative;'><img src='responseScales/vas_banded.png' id='customSlider2' width='600px' height='60px'><div id='customTick2' class='customTick2'><img id='customTick2_fig' src='responseScales/tick2.png' width='25px' height='25px'></div></div></td><td class='rightTdVas'>100<br>Very<br>attractive</td></tr><tr><td colspan='3'><div id='mySlider5_value'></div></td></tr></table></div></div>","","","html-vas-custom","53","242714","0.0-53.0","1212121212121212121212121212121212121212121","2023-11-2 14:59","","","","","24","","attractiveness_scale","84"
"null","<div class='conf_div'><p  style=' margin-bottom:28px; margin-top:0px; ' ><strong>How attractive do you think this face is?</strong></p><img class='central_stim' src='img/4 BM-039.jpg' </img><p  style=' margin-top: -60px;' ><strong><br><br><br><br><br><br><br></strong></p></div>","null","exposition_attractiveness","html-keyboard-response","54","245730","0.0-54.0","1212121212121212121212121212121212121212121","2023-11-2 14:59","","","","","25","img/4 BM-039.jpg","",""
"6775.5999999996275","<div class='conf_div'><p style='margin-bottom: 28px; margin-top: 0px;'><strong>How attractive do you think this face is?</strong></p><img class='central_stim' src='img/cardback2o.jpg'></img><div id='mySlider5' style='width: 100%; text-align: center;'><table style='text-align: center; margin: auto; padding: 0;'><tr><td class='rightTdVas'>0<br>Very<br>unattractive</td><td><div style='position: relative;'><img src='responseScales/vas_banded.png' id='customSlider2' width='600px' height='60px'><div id='customTick2' class='customTick2'><img id='customTick2_fig' src='responseScales/tick2.png' width='25px' height='25px'></div></div></td><td class='rightTdVas'>100<br>Very<br>attractive</td></tr><tr><td colspan='3'><div id='mySlider5_value'></div></td></tr></table></div></div>","","","html-vas-custom","55","252509","0.0-55.0","1212121212121212121212121212121212121212121","2023-11-2 14:59","","","","","25","","attractiveness_scale","79"
"null","<div class='conf_div'><p  style=' margin-bottom:28px; margin-top:0px; ' ><strong>How attractive do you think this face is?</strong></p><img class='central_stim' src='img/6 LF-209.jpg' </img><p  style=' margin-top: -60px;' ><strong><br><br><br><br><br><br><br></strong></p></div>","null","exposition_attractiveness","html-keyboard-response","56","255522","0.0-56.0","1212121212121212121212121212121212121212121","2023-11-2 14:59","","","","","26","img/6 LF-209.jpg","",""
"11187.700000001118","<div class='conf_div'><p style='margin-bottom: 28px; margin-top: 0px;'><strong>How attractive do you think this face is?</strong></p><img class='central_stim' src='img/cardback2o.jpg'></img><div id='mySlider5' style='width: 100%; text-align: center;'><table style='text-align: center; margin: auto; padding: 0;'><tr><td class='rightTdVas'>0<br>Very<br>unattractive</td><td><div style='position: relative;'><img src='responseScales/vas_banded.png' id='customSlider2' width='600px' height='60px'><div id='customTick2' class='customTick2'><img id='customTick2_fig' src='responseScales/tick2.png' width='25px' height='25px'></div></div></td><td class='rightTdVas'>100<br>Very<br>attractive</td></tr><tr><td colspan='3'><div id='mySlider5_value'></div></td></tr></table></div></div>","","","html-vas-custom","57","266712","0.0-57.0","1212121212121212121212121212121212121212121","2023-11-2 14:59","","","","","26","","attractiveness_scale","84"
"null","<div class='conf_div'><p  style=' margin-bottom:28px; margin-top:0px; ' ><strong>How attractive do you think this face is?</strong></p><img class='central_stim' src='img/2 AF-216.jpg' </img><p  style=' margin-top: -60px;' ><strong><br><br><br><br><br><br><br></strong></p></div>","null","exposition_attractiveness","html-keyboard-response","58","269718","0.0-58.0","1212121212121212121212121212121212121212121","2023-11-2 14:59","","","","","27","img/2 AF-216.jpg","",""
"2600.89999999851","<div class='conf_div'><p style='margin-bottom: 28px; margin-top: 0px;'><strong>How attractive do you think this face is?</strong></p><img class='central_stim' src='img/cardback2o.jpg'></img><div id='mySlider5' style='width: 100%; text-align: center;'><table style='text-align: center; margin: auto; padding: 0;'><tr><td class='rightTdVas'>0<br>Very<br>unattractive</td><td><div style='position: relative;'><img src='responseScales/vas_banded.png' id='customSlider2' width='600px' height='60px'><div id='customTick2' class='customTick2'><img id='customTick2_fig' src='responseScales/tick2.png' width='25px' height='25px'></div></div></td><td class='rightTdVas'>100<br>Very<br>attractive</td></tr><tr><td colspan='3'><div id='mySlider5_value'></div></td></tr></table></div></div>","","","html-vas-custom","59","272321","0.0-59.0","1212121212121212121212121212121212121212121","2023-11-2 14:59","","","","","27","","attractiveness_scale","28"
"null","<div class='conf_div'><p  style=' margin-bottom:28px; margin-top:0px; ' ><strong>How attractive do you think this face is?</strong></p><img class='central_stim' src='img/18 LF-251.jpg' </img><p  style=' margin-top: -60px;' ><strong><br><br><br><br><br><br><br></strong></p></div>","null","exposition_attractiveness","html-keyboard-response","60","275330","0.0-60.0","1212121212121212121212121212121212121212121","2023-11-2 14:59","","","","","28","img/18 LF-251.jpg","",""
"4531.9000000003725","<div class='conf_div'><p style='margin-bottom: 28px; margin-top: 0px;'><strong>How attractive do you think this face is?</strong></p><img class='central_stim' src='img/cardback2o.jpg'></img><div id='mySlider5' style='width: 100%; text-align: center;'><table style='text-align: center; margin: auto; padding: 0;'><tr><td class='rightTdVas'>0<br>Very<br>unattractive</td><td><div style='position: relative;'><img src='responseScales/vas_banded.png' id='customSlider2' width='600px' height='60px'><div id='customTick2' class='customTick2'><img id='customTick2_fig' src='responseScales/tick2.png' width='25px' height='25px'></div></div></td><td class='rightTdVas'>100<br>Very<br>attractive</td></tr><tr><td colspan='3'><div id='mySlider5_value'></div></td></tr></table></div></div>","","","html-vas-custom","61","279865","0.0-61.0","1212121212121212121212121212121212121212121","2023-11-2 14:59","","","","","28","","attractiveness_scale","77"
"null","<div class='conf_div'><p  style=' margin-bottom:28px; margin-top:0px; ' ><strong>How attractive do you think this face is?</strong></p><img class='central_stim' src='img/6 LF-210.jpg' </img><p  style=' margin-top: -60px;' ><strong><br><br><br><br><br><br><br></strong></p></div>","null","exposition_attractiveness","html-keyboard-response","62","282872","0.0-62.0","1212121212121212121212121212121212121212121","2023-11-2 14:59","","","","","29","img/6 LF-210.jpg","",""
"2802.699999999255","<div class='conf_div'><p style='margin-bottom: 28px; margin-top: 0px;'><strong>How attractive do you think this face is?</strong></p><img class='central_stim' src='img/cardback2o.jpg'></img><div id='mySlider5' style='width: 100%; text-align: center;'><table style='text-align: center; margin: auto; padding: 0;'><tr><td class='rightTdVas'>0<br>Very<br>unattractive</td><td><div style='position: relative;'><img src='responseScales/vas_banded.png' id='customSlider2' width='600px' height='60px'><div id='customTick2' class='customTick2'><img id='customTick2_fig' src='responseScales/tick2.png' width='25px' height='25px'></div></div></td><td class='rightTdVas'>100<br>Very<br>attractive</td></tr><tr><td colspan='3'><div id='mySlider5_value'></div></td></tr></table></div></div>","","","html-vas-custom","63","285678","0.0-63.0","1212121212121212121212121212121212121212121","2023-11-2 14:59","","","","","29","","attractiveness_scale","76"
"null","<div class='conf_div'><p  style=' margin-bottom:28px; margin-top:0px; ' ><strong>How attractive do you think this face is?</strong></p><img class='central_stim' src='img/20 AM-213.jpg' </img><p  style=' margin-top: -60px;' ><strong><br><br><br><br><br><br><br></strong></p></div>","null","exposition_attractiveness","html-keyboard-response","64","288681","0.0-64.0","1212121212121212121212121212121212121212121","2023-11-2 14:59","","","","","30","img/20 AM-213.jpg","",""
"3263.0999999996275","<div class='conf_div'><p style='margin-bottom: 28px; margin-top: 0px;'><strong>How attractive do you think this face is?</strong></p><img class='central_stim' src='img/cardback2o.jpg'></img><div id='mySlider5' style='width: 100%; text-align: center;'><table style='text-align: center; margin: auto; padding: 0;'><tr><td class='rightTdVas'>0<br>Very<br>unattractive</td><td><div style='position: relative;'><img src='responseScales/vas_banded.png' id='customSlider2' width='600px' height='60px'><div id='customTick2' class='customTick2'><img id='customTick2_fig' src='responseScales/tick2.png' width='25px' height='25px'></div></div></td><td class='rightTdVas'>100<br>Very<br>attractive</td></tr><tr><td colspan='3'><div id='mySlider5_value'></div></td></tr></table></div></div>","","","html-vas-custom","65","291946","0.0-65.0","1212121212121212121212121212121212121212121","2023-11-2 14:59","","","","","30","","attractiveness_scale","54"
"null","<div class='conf_div'><p  style=' margin-bottom:28px; margin-top:0px; ' ><strong>How attractive do you think this face is?</strong></p><img class='central_stim' src='img/13 BF-243.jpg' </img><p  style=' margin-top: -60px;' ><strong><br><br><br><br><br><br><br></strong></p></div>","null","exposition_attractiveness","html-keyboard-response","66","294960","0.0-66.0","1212121212121212121212121212121212121212121","2023-11-2 14:59","","","","","31","img/13 BF-243.jpg","",""
"2705.5999999996275","<div class='conf_div'><p style='margin-bottom: 28px; margin-top: 0px;'><strong>How attractive do you think this face is?</strong></p><img class='central_stim' src='img/cardback2o.jpg'></img><div id='mySlider5' style='width: 100%; text-align: center;'><table style='text-align: center; margin: auto; padding: 0;'><tr><td class='rightTdVas'>0<br>Very<br>unattractive</td><td><div style='position: relative;'><img src='responseScales/vas_banded.png' id='customSlider2' width='600px' height='60px'><div id='customTick2' class='customTick2'><img id='customTick2_fig' src='responseScales/tick2.png' width='25px' height='25px'></div></div></td><td class='rightTdVas'>100<br>Very<br>attractive</td></tr><tr><td colspan='3'><div id='mySlider5_value'></div></td></tr></table></div></div>","","","html-vas-custom","67","297669","0.0-67.0","1212121212121212121212121212121212121212121","2023-11-2 14:59","","","","","31","","attractiveness_scale","65"
"null","<div class='conf_div'><p  style=' margin-bottom:28px; margin-top:0px; ' ><strong>How attractive do you think this face is?</strong></p><img class='central_stim' src='img/13 BF-244.jpg' </img><p  style=' margin-top: -60px;' ><strong><br><br><br><br><br><br><br></strong></p></div>","null","exposition_attractiveness","html-keyboard-response","68","300681","0.0-68.0","1212121212121212121212121212121212121212121","2023-11-2 14:59","","","","","32","img/13 BF-244.jpg","",""
"3720.2999999988824","<div class='conf_div'><p style='margin-bottom: 28px; margin-top: 0px;'><strong>How attractive do you think this face is?</strong></p><img class='central_stim' src='img/cardback2o.jpg'></img><div id='mySlider5' style='width: 100%; text-align: center;'><table style='text-align: center; margin: auto; padding: 0;'><tr><td class='rightTdVas'>0<br>Very<br>unattractive</td><td><div style='position: relative;'><img src='responseScales/vas_banded.png' id='customSlider2' width='600px' height='60px'><div id='customTick2' class='customTick2'><img id='customTick2_fig' src='responseScales/tick2.png' width='25px' height='25px'></div></div></td><td class='rightTdVas'>100<br>Very<br>attractive</td></tr><tr><td colspan='3'><div id='mySlider5_value'></div></td></tr></table></div></div>","","","html-vas-custom","69","304404","0.0-69.0","1212121212121212121212121212121212121212121","2023-11-2 14:59","","","","","32","","attractiveness_scale","63"
"null","<div class='conf_div'><p  style=' margin-bottom:28px; margin-top:0px; ' ><strong>How attractive do you think this face is?</strong></p><img class='central_stim' src='img/19 BM-247.jpg' </img><p  style=' margin-top: -60px;' ><strong><br><br><br><br><br><br><br></strong></p></div>","null","exposition_attractiveness","html-keyboard-response","70","307413","0.0-70.0","1212121212121212121212121212121212121212121","2023-11-2 14:59","","","","","33","img/19 BM-247.jpg","",""
"2269.4000000003725","<div class='conf_div'><p style='margin-bottom: 28px; margin-top: 0px;'><strong>How attractive do you think this face is?</strong></p><img class='central_stim' src='img/cardback2o.jpg'></img><div id='mySlider5' style='width: 100%; text-align: center;'><table style='text-align: center; margin: auto; padding: 0;'><tr><td class='rightTdVas'>0<br>Very<br>unattractive</td><td><div style='position: relative;'><img src='responseScales/vas_banded.png' id='customSlider2' width='600px' height='60px'><div id='customTick2' class='customTick2'><img id='customTick2_fig' src='responseScales/tick2.png' width='25px' height='25px'></div></div></td><td class='rightTdVas'>100<br>Very<br>attractive</td></tr><tr><td colspan='3'><div id='mySlider5_value'></div></td></tr></table></div></div>","","","html-vas-custom","71","309686","0.0-71.0","1212121212121212121212121212121212121212121","2023-11-2 14:59","","","","","33","","attractiveness_scale","85"
"null","<div class='conf_div'><p  style=' margin-bottom:28px; margin-top:0px; ' ><strong>How attractive do you think this face is?</strong></p><img class='central_stim' src='img/17 WF-205.jpg' </img><p  style=' margin-top: -60px;' ><strong><br><br><br><br><br><br><br></strong></p></div>","null","exposition_attractiveness","html-keyboard-response","72","312703","0.0-72.0","1212121212121212121212121212121212121212121","2023-11-2 14:59","","","","","34","img/17 WF-205.jpg","",""
"2185","<div class='conf_div'><p style='margin-bottom: 28px; margin-top: 0px;'><strong>How attractive do you think this face is?</strong></p><img class='central_stim' src='img/cardback2o.jpg'></img><div id='mySlider5' style='width: 100%; text-align: center;'><table style='text-align: center; margin: auto; padding: 0;'><tr><td class='rightTdVas'>0<br>Very<br>unattractive</td><td><div style='position: relative;'><img src='responseScales/vas_banded.png' id='customSlider2' width='600px' height='60px'><div id='customTick2' class='customTick2'><img id='customTick2_fig' src='responseScales/tick2.png' width='25px' height='25px'></div></div></td><td class='rightTdVas'>100<br>Very<br>attractive</td></tr><tr><td colspan='3'><div id='mySlider5_value'></div></td></tr></table></div></div>","","","html-vas-custom","73","314891","0.0-73.0","1212121212121212121212121212121212121212121","2023-11-2 14:59","","","","","34","","attractiveness_scale","61"
"null","<div class='conf_div'><p  style=' margin-bottom:28px; margin-top:0px; ' ><strong>How attractive do you think this face is?</strong></p><img class='central_stim' src='img/5 BM-041.jpg' </img><p  style=' margin-top: -60px;' ><strong><br><br><br><br><br><br><br></strong></p></div>","null","exposition_attractiveness","html-keyboard-response","74","317901","0.0-74.0","1212121212121212121212121212121212121212121","2023-11-2 14:59","","","","","35","img/5 BM-041.jpg","",""
"2550.4000000003725","<div class='conf_div'><p style='margin-bottom: 28px; margin-top: 0px;'><strong>How attractive do you think this face is?</strong></p><img class='central_stim' src='img/cardback2o.jpg'></img><div id='mySlider5' style='width: 100%; text-align: center;'><table style='text-align: center; margin: auto; padding: 0;'><tr><td class='rightTdVas'>0<br>Very<br>unattractive</td><td><div style='position: relative;'><img src='responseScales/vas_banded.png' id='customSlider2' width='600px' height='60px'><div id='customTick2' class='customTick2'><img id='customTick2_fig' src='responseScales/tick2.png' width='25px' height='25px'></div></div></td><td class='rightTdVas'>100<br>Very<br>attractive</td></tr><tr><td colspan='3'><div id='mySlider5_value'></div></td></tr></table></div></div>","","","html-vas-custom","75","320455","0.0-75.0","1212121212121212121212121212121212121212121","2023-11-2 14:59","","","","","35","","attractiveness_scale","66"
"null","<div class='conf_div'><p  style=' margin-bottom:28px; margin-top:0px; ' ><strong>How attractive do you think this face is?</strong></p><img class='central_stim' src='img/15 WM-257.jpg' </img><p  style=' margin-top: -60px;' ><strong><br><br><br><br><br><br><br></strong></p></div>","null","exposition_attractiveness","html-keyboard-response","76","323459","0.0-76.0","1212121212121212121212121212121212121212121","2023-11-2 14:59","","","","","36","img/15 WM-257.jpg","",""
"2912.300000000745","<div class='conf_div'><p style='margin-bottom: 28px; margin-top: 0px;'><strong>How attractive do you think this face is?</strong></p><img class='central_stim' src='img/cardback2o.jpg'></img><div id='mySlider5' style='width: 100%; text-align: center;'><table style='text-align: center; margin: auto; padding: 0;'><tr><td class='rightTdVas'>0<br>Very<br>unattractive</td><td><div style='position: relative;'><img src='responseScales/vas_banded.png' id='customSlider2' width='600px' height='60px'><div id='customTick2' class='customTick2'><img id='customTick2_fig' src='responseScales/tick2.png' width='25px' height='25px'></div></div></td><td class='rightTdVas'>100<br>Very<br>attractive</td></tr><tr><td colspan='3'><div id='mySlider5_value'></div></td></tr></table></div></div>","","","html-vas-custom","77","326375","0.0-77.0","1212121212121212121212121212121212121212121","2023-11-2 14:59","","","","","36","","attractiveness_scale","68"
"null","<div class='conf_div'><p  style=' margin-bottom:28px; margin-top:0px; ' ><strong>How attractive do you think this face is?</strong></p><img class='central_stim' src='img/3 BF-004.jpg' </img><p  style=' margin-top: -60px;' ><strong><br><br><br><br><br><br><br></strong></p></div>","null","exposition_attractiveness","html-keyboard-response","78","329382","0.0-78.0","1212121212121212121212121212121212121212121","2023-11-2 14:59","","","","","37","img/3 BF-004.jpg","",""
"2718.300000000745","<div class='conf_div'><p style='margin-bottom: 28px; margin-top: 0px;'><strong>How attractive do you think this face is?</strong></p><img class='central_stim' src='img/cardback2o.jpg'></img><div id='mySlider5' style='width: 100%; text-align: center;'><table style='text-align: center; margin: auto; padding: 0;'><tr><td class='rightTdVas'>0<br>Very<br>unattractive</td><td><div style='position: relative;'><img src='responseScales/vas_banded.png' id='customSlider2' width='600px' height='60px'><div id='customTick2' class='customTick2'><img id='customTick2_fig' src='responseScales/tick2.png' width='25px' height='25px'></div></div></td><td class='rightTdVas'>100<br>Very<br>attractive</td></tr><tr><td colspan='3'><div id='mySlider5_value'></div></td></tr></table></div></div>","","","html-vas-custom","79","332103","0.0-79.0","1212121212121212121212121212121212121212121","2023-11-2 14:59","","","","","37","","attractiveness_scale","41"
"null","<div class='conf_div'><p  style=' margin-bottom:28px; margin-top:0px; ' ><strong>How attractive do you think this face is?</strong></p><img class='central_stim' src='img/5 BM-022.jpg' </img><p  style=' margin-top: -60px;' ><strong><br><br><br><br><br><br><br></strong></p></div>","null","exposition_attractiveness","html-keyboard-response","80","335121","0.0-80.0","1212121212121212121212121212121212121212121","2023-11-2 14:59","","","","","38","img/5 BM-022.jpg","",""
"4237.0999999996275","<div class='conf_div'><p style='margin-bottom: 28px; margin-top: 0px;'><strong>How attractive do you think this face is?</strong></p><img class='central_stim' src='img/cardback2o.jpg'></img><div id='mySlider5' style='width: 100%; text-align: center;'><table style='text-align: center; margin: auto; padding: 0;'><tr><td class='rightTdVas'>0<br>Very<br>unattractive</td><td><div style='position: relative;'><img src='responseScales/vas_banded.png' id='customSlider2' width='600px' height='60px'><div id='customTick2' class='customTick2'><img id='customTick2_fig' src='responseScales/tick2.png' width='25px' height='25px'></div></div></td><td class='rightTdVas'>100<br>Very<br>attractive</td></tr><tr><td colspan='3'><div id='mySlider5_value'></div></td></tr></table></div></div>","","","html-vas-custom","81","339361","0.0-81.0","1212121212121212121212121212121212121212121","2023-11-2 14:59","","","","","38","","attractiveness_scale","71"
"null","<div class='conf_div'><p  style=' margin-bottom:28px; margin-top:0px; ' ><strong>How attractive do you think this face is?</strong></p><img class='central_stim' src='img/6 LF-214.jpg' </img><p  style=' margin-top: -60px;' ><strong><br><br><br><br><br><br><br></strong></p></div>","null","exposition_attractiveness","html-keyboard-response","82","342370","0.0-82.0","1212121212121212121212121212121212121212121","2023-11-2 14:59","","","","","39","img/6 LF-214.jpg","",""
"5346.0999999996275","<div class='conf_div'><p style='margin-bottom: 28px; margin-top: 0px;'><strong>How attractive do you think this face is?</strong></p><img class='central_stim' src='img/cardback2o.jpg'></img><div id='mySlider5' style='width: 100%; text-align: center;'><table style='text-align: center; margin: auto; padding: 0;'><tr><td class='rightTdVas'>0<br>Very<br>unattractive</td><td><div style='position: relative;'><img src='responseScales/vas_banded.png' id='customSlider2' width='600px' height='60px'><div id='customTick2' class='customTick2'><img id='customTick2_fig' src='responseScales/tick2.png' width='25px' height='25px'></div></div></td><td class='rightTdVas'>100<br>Very<br>attractive</td></tr><tr><td colspan='3'><div id='mySlider5_value'></div></td></tr></table></div></div>","","","html-vas-custom","83","347718","0.0-83.0","1212121212121212121212121212121212121212121","2023-11-2 14:59","","","","","39","","attractiveness_scale","93"
"null","<div class='conf_div'><p  style=' margin-bottom:28px; margin-top:0px; ' ><strong>How attractive do you think this face is?</strong></p><img class='central_stim' src='img/4 BM-229.jpg' </img><p  style=' margin-top: -60px;' ><strong><br><br><br><br><br><br><br></strong></p></div>","null","exposition_attractiveness","html-keyboard-response","84","350723","0.0-84.0","1212121212121212121212121212121212121212121","2023-11-2 14:59","","","","","40","img/4 BM-229.jpg","",""
"3489.300000000745","<div class='conf_div'><p style='margin-bottom: 28px; margin-top: 0px;'><strong>How attractive do you think this face is?</strong></p><img class='central_stim' src='img/cardback2o.jpg'></img><div id='mySlider5' style='width: 100%; text-align: center;'><table style='text-align: center; margin: auto; padding: 0;'><tr><td class='rightTdVas'>0<br>Very<br>unattractive</td><td><div style='position: relative;'><img src='responseScales/vas_banded.png' id='customSlider2' width='600px' height='60px'><div id='customTick2' class='customTick2'><img id='customTick2_fig' src='responseScales/tick2.png' width='25px' height='25px'></div></div></td><td class='rightTdVas'>100<br>Very<br>attractive</td></tr><tr><td colspan='3'><div id='mySlider5_value'></div></td></tr></table></div></div>","","","html-vas-custom","85","354215","0.0-85.0","1212121212121212121212121212121212121212121","2023-11-2 14:59","","","","","40","","attractiveness_scale","71"
"null","<div class='conf_div'><p  style=' margin-bottom:28px; margin-top:0px; ' ><strong>How attractive do you think this face is?</strong></p><img class='central_stim' src='img/1 AF-226.jpg' </img><p  style=' margin-top: -60px;' ><strong><br><br><br><br><br><br><br></strong></p></div>","null","exposition_attractiveness","html-keyboard-response","86","357227","0.0-86.0","1212121212121212121212121212121212121212121","2023-11-2 14:59","","","","","41","img/1 AF-226.jpg","",""
"4272.0999999996275","<div class='conf_div'><p style='margin-bottom: 28px; margin-top: 0px;'><strong>How attractive do you think this face is?</strong></p><img class='central_stim' src='img/cardback2o.jpg'></img><div id='mySlider5' style='width: 100%; text-align: center;'><table style='text-align: center; margin: auto; padding: 0;'><tr><td class='rightTdVas'>0<br>Very<br>unattractive</td><td><div style='position: relative;'><img src='responseScales/vas_banded.png' id='customSlider2' width='600px' height='60px'><div id='customTick2' class='customTick2'><img id='customTick2_fig' src='responseScales/tick2.png' width='25px' height='25px'></div></div></td><td class='rightTdVas'>100<br>Very<br>attractive</td></tr><tr><td colspan='3'><div id='mySlider5_value'></div></td></tr></table></div></div>","","","html-vas-custom","87","361502","0.0-87.0","1212121212121212121212121212121212121212121","2023-11-2 14:59","","","","","41","","attractiveness_scale","84"
"null","<div class='conf_div'><p  style=' margin-bottom:28px; margin-top:0px; ' ><strong>How attractive do you think this face is?</strong></p><img class='central_stim' src='img/16 BF-212.jpg' </img><p  style=' margin-top: -60px;' ><strong><br><br><br><br><br><br><br></strong></p></div>","null","exposition_attractiveness","html-keyboard-response","88","364507","0.0-88.0","1212121212121212121212121212121212121212121","2023-11-2 14:59","","","","","42","img/16 BF-212.jpg","",""
"2212.5","<div class='conf_div'><p style='margin-bottom: 28px; margin-top: 0px;'><strong>How attractive do you think this face is?</strong></p><img class='central_stim' src='img/cardback2o.jpg'></img><div id='mySlider5' style='width: 100%; text-align: center;'><table style='text-align: center; margin: auto; padding: 0;'><tr><td class='rightTdVas'>0<br>Very<br>unattractive</td><td><div style='position: relative;'><img src='responseScales/vas_banded.png' id='customSlider2' width='600px' height='60px'><div id='customTick2' class='customTick2'><img id='customTick2_fig' src='responseScales/tick2.png' width='25px' height='25px'></div></div></td><td class='rightTdVas'>100<br>Very<br>attractive</td></tr><tr><td colspan='3'><div id='mySlider5_value'></div></td></tr></table></div></div>","","","html-vas-custom","89","366723","0.0-89.0","1212121212121212121212121212121212121212121","2023-11-2 14:59","","","","","42","","attractiveness_scale","73"
"null","<div class='conf_div'><p  style=' margin-bottom:28px; margin-top:0px; ' ><strong>How attractive do you think this face is?</strong></p><img class='central_stim' src='img/2 AF-256.jpg' </img><p  style=' margin-top: -60px;' ><strong><br><br><br><br><br><br><br></strong></p></div>","null","exposition_attractiveness","html-keyboard-response","90","369734","0.0-90.0","1212121212121212121212121212121212121212121","2023-11-2 14:59","","","","","43","img/2 AF-256.jpg","",""
"2711.39999999851","<div class='conf_div'><p style='margin-bottom: 28px; margin-top: 0px;'><strong>How attractive do you think this face is?</strong></p><img class='central_stim' src='img/cardback2o.jpg'></img><div id='mySlider5' style='width: 100%; text-align: center;'><table style='text-align: center; margin: auto; padding: 0;'><tr><td class='rightTdVas'>0<br>Very<br>unattractive</td><td><div style='position: relative;'><img src='responseScales/vas_banded.png' id='customSlider2' width='600px' height='60px'><div id='customTick2' class='customTick2'><img id='customTick2_fig' src='responseScales/tick2.png' width='25px' height='25px'></div></div></td><td class='rightTdVas'>100<br>Very<br>attractive</td></tr><tr><td colspan='3'><div id='mySlider5_value'></div></td></tr></table></div></div>","","","html-vas-custom","91","372449","0.0-91.0","1212121212121212121212121212121212121212121","2023-11-2 14:59","","","","","43","","attractiveness_scale","57"
"null","<div class='conf_div'><p  style=' margin-bottom:28px; margin-top:0px; ' ><strong>How attractive do you think this face is?</strong></p><img class='central_stim' src='img/15 WM-231.jpg' </img><p  style=' margin-top: -60px;' ><strong><br><br><br><br><br><br><br></strong></p></div>","null","exposition_attractiveness","html-keyboard-response","92","375461","0.0-92.0","1212121212121212121212121212121212121212121","2023-11-2 14:59","","","","","44","img/15 WM-231.jpg","",""
"3115.7000000011176","<div class='conf_div'><p style='margin-bottom: 28px; margin-top: 0px;'><strong>How attractive do you think this face is?</strong></p><img class='central_stim' src='img/cardback2o.jpg'></img><div id='mySlider5' style='width: 100%; text-align: center;'><table style='text-align: center; margin: auto; padding: 0;'><tr><td class='rightTdVas'>0<br>Very<br>unattractive</td><td><div style='position: relative;'><img src='responseScales/vas_banded.png' id='customSlider2' width='600px' height='60px'><div id='customTick2' class='customTick2'><img id='customTick2_fig' src='responseScales/tick2.png' width='25px' height='25px'></div></div></td><td class='rightTdVas'>100<br>Very<br>attractive</td></tr><tr><td colspan='3'><div id='mySlider5_value'></div></td></tr></table></div></div>","","","html-vas-custom","93","378581","0.0-93.0","1212121212121212121212121212121212121212121","2023-11-2 14:59","","","","","44","","attractiveness_scale","62"
"null","<div class='conf_div'><p  style=' margin-bottom:28px; margin-top:0px; ' ><strong>How attractive do you think this face is?</strong></p><img class='central_stim' src='img/4 BM-045.jpg' </img><p  style=' margin-top: -60px;' ><strong><br><br><br><br><br><br><br></strong></p></div>","null","exposition_attractiveness","html-keyboard-response","94","381595","0.0-94.0","1212121212121212121212121212121212121212121","2023-11-2 14:59","","","","","45","img/4 BM-045.jpg","",""
"2630.300000000745","<div class='conf_div'><p style='margin-bottom: 28px; margin-top: 0px;'><strong>How attractive do you think this face is?</strong></p><img class='central_stim' src='img/cardback2o.jpg'></img><div id='mySlider5' style='width: 100%; text-align: center;'><table style='text-align: center; margin: auto; padding: 0;'><tr><td class='rightTdVas'>0<br>Very<br>unattractive</td><td><div style='position: relative;'><img src='responseScales/vas_banded.png' id='customSlider2' width='600px' height='60px'><div id='customTick2' class='customTick2'><img id='customTick2_fig' src='responseScales/tick2.png' width='25px' height='25px'></div></div></td><td class='rightTdVas'>100<br>Very<br>attractive</td></tr><tr><td colspan='3'><div id='mySlider5_value'></div></td></tr></table></div></div>","","","html-vas-custom","95","384229","0.0-95.0","1212121212121212121212121212121212121212121","2023-11-2 14:59","","","","","45","","attractiveness_scale","65"
"null","<div class='conf_div'><p  style=' margin-bottom:28px; margin-top:0px; ' ><strong>How attractive do you think this face is?</strong></p><img class='central_stim' src='img/18 LF-232.jpg' </img><p  style=' margin-top: -60px;' ><strong><br><br><br><br><br><br><br></strong></p></div>","null","exposition_attractiveness","html-keyboard-response","96","387242","0.0-96.0","1212121212121212121212121212121212121212121","2023-11-2 14:59","","","","","46","img/18 LF-232.jpg","",""
"3255.9000000003725","<div class='conf_div'><p style='margin-bottom: 28px; margin-top: 0px;'><strong>How attractive do you think this face is?</strong></p><img class='central_stim' src='img/cardback2o.jpg'></img><div id='mySlider5' style='width: 100%; text-align: center;'><table style='text-align: center; margin: auto; padding: 0;'><tr><td class='rightTdVas'>0<br>Very<br>unattractive</td><td><div style='position: relative;'><img src='responseScales/vas_banded.png' id='customSlider2' width='600px' height='60px'><div id='customTick2' class='customTick2'><img id='customTick2_fig' src='responseScales/tick2.png' width='25px' height='25px'></div></div></td><td class='rightTdVas'>100<br>Very<br>attractive</td></tr><tr><td colspan='3'><div id='mySlider5_value'></div></td></tr></table></div></div>","","","html-vas-custom","97","390501","0.0-97.0","1212121212121212121212121212121212121212121","2023-11-2 14:59","","","","","46","","attractiveness_scale","68"
"null","<div class='conf_div'><p  style=' margin-bottom:28px; margin-top:0px; ' ><strong>How attractive do you think this face is?</strong></p><img class='central_stim' src='img/11 WF-021.jpg' </img><p  style=' margin-top: -60px;' ><strong><br><br><br><br><br><br><br></strong></p></div>","null","exposition_attractiveness","html-keyboard-response","98","393509","0.0-98.0","1212121212121212121212121212121212121212121","2023-11-2 14:59","","","","","47","img/11 WF-021.jpg","",""
"2269.0999999996275","<div class='conf_div'><p style='margin-bottom: 28px; margin-top: 0px;'><strong>How attractive do you think this face is?</strong></p><img class='central_stim' src='img/cardback2o.jpg'></img><div id='mySlider5' style='width: 100%; text-align: center;'><table style='text-align: center; margin: auto; padding: 0;'><tr><td class='rightTdVas'>0<br>Very<br>unattractive</td><td><div style='position: relative;'><img src='responseScales/vas_banded.png' id='customSlider2' width='600px' height='60px'><div id='customTick2' class='customTick2'><img id='customTick2_fig' src='responseScales/tick2.png' width='25px' height='25px'></div></div></td><td class='rightTdVas'>100<br>Very<br>attractive</td></tr><tr><td colspan='3'><div id='mySlider5_value'></div></td></tr></table></div></div>","","","html-vas-custom","99","395781","0.0-99.0","1212121212121212121212121212121212121212121","2023-11-2 14:59","","","","","47","","attractiveness_scale","38"
"null","<div class='conf_div'><p  style=' margin-bottom:28px; margin-top:0px; ' ><strong>How attractive do you think this face is?</strong></p><img class='central_stim' src='img/12 WM-010.jpg' </img><p  style=' margin-top: -60px;' ><strong><br><br><br><br><br><br><br></strong></p></div>","null","exposition_attractiveness","html-keyboard-response","100","398791","0.0-100.0","1212121212121212121212121212121212121212121","2023-11-2 14:59","","","","","48","img/12 WM-010.jpg","",""
"2743.300000000745","<div class='conf_div'><p style='margin-bottom: 28px; margin-top: 0px;'><strong>How attractive do you think this face is?</strong></p><img class='central_stim' src='img/cardback2o.jpg'></img><div id='mySlider5' style='width: 100%; text-align: center;'><table style='text-align: center; margin: auto; padding: 0;'><tr><td class='rightTdVas'>0<br>Very<br>unattractive</td><td><div style='position: relative;'><img src='responseScales/vas_banded.png' id='customSlider2' width='600px' height='60px'><div id='customTick2' class='customTick2'><img id='customTick2_fig' src='responseScales/tick2.png' width='25px' height='25px'></div></div></td><td class='rightTdVas'>100<br>Very<br>attractive</td></tr><tr><td colspan='3'><div id='mySlider5_value'></div></td></tr></table></div></div>","","","html-vas-custom","101","401537","0.0-101.0","1212121212121212121212121212121212121212121","2023-11-2 14:59","","","","","48","","attractiveness_scale","63"
"null","<div class='conf_div'><p  style=' margin-bottom:28px; margin-top:0px; ' ><strong>How attractive do you think this face is?</strong></p><img class='central_stim' src='img/9 LM-235.jpg' </img><p  style=' margin-top: -60px;' ><strong><br><br><br><br><br><br><br></strong></p></div>","null","exposition_attractiveness","html-keyboard-response","102","404555","0.0-102.0","1212121212121212121212121212121212121212121","2023-11-2 14:59","","","","","49","img/9 LM-235.jpg","",""
"2635.89999999851","<div class='conf_div'><p style='margin-bottom: 28px; margin-top: 0px;'><strong>How attractive do you think this face is?</strong></p><img class='central_stim' src='img/cardback2o.jpg'></img><div id='mySlider5' style='width: 100%; text-align: center;'><table style='text-align: center; margin: auto; padding: 0;'><tr><td class='rightTdVas'>0<br>Very<br>unattractive</td><td><div style='position: relative;'><img src='responseScales/vas_banded.png' id='customSlider2' width='600px' height='60px'><div id='customTick2' class='customTick2'><img id='customTick2_fig' src='responseScales/tick2.png' width='25px' height='25px'></div></div></td><td class='rightTdVas'>100<br>Very<br>attractive</td></tr><tr><td colspan='3'><div id='mySlider5_value'></div></td></tr></table></div></div>","","","html-vas-custom","103","407194","0.0-103.0","1212121212121212121212121212121212121212121","2023-11-2 14:59","","","","","49","","attractiveness_scale","67"
"null","<div class='conf_div'><p  style=' margin-bottom:28px; margin-top:0px; ' ><strong>How attractive do you think this face is?</strong></p><img class='central_stim' src='img/19 BM-240.jpg' </img><p  style=' margin-top: -60px;' ><strong><br><br><br><br><br><br><br></strong></p></div>","null","exposition_attractiveness","html-keyboard-response","104","410202","0.0-104.0","1212121212121212121212121212121212121212121","2023-11-2 14:59","","","","","50","img/19 BM-240.jpg","",""
"3163.0999999996275","<div class='conf_div'><p style='margin-bottom: 28px; margin-top: 0px;'><strong>How attractive do you think this face is?</strong></p><img class='central_stim' src='img/cardback2o.jpg'></img><div id='mySlider5' style='width: 100%; text-align: center;'><table style='text-align: center; margin: auto; padding: 0;'><tr><td class='rightTdVas'>0<br>Very<br>unattractive</td><td><div style='position: relative;'><img src='responseScales/vas_banded.png' id='customSlider2' width='600px' height='60px'><div id='customTick2' class='customTick2'><img id='customTick2_fig' src='responseScales/tick2.png' width='25px' height='25px'></div></div></td><td class='rightTdVas'>100<br>Very<br>attractive</td></tr><tr><td colspan='3'><div id='mySlider5_value'></div></td></tr></table></div></div>","","","html-vas-custom","105","413367","0.0-105.0","1212121212121212121212121212121212121212121","2023-11-2 14:59","","","","","50","","attractiveness_scale","78"
"null","<div class='conf_div'><p  style=' margin-bottom:28px; margin-top:0px; ' ><strong>How attractive do you think this face is?</strong></p><img class='central_stim' src='img/12 WM-232.jpg' </img><p  style=' margin-top: -60px;' ><strong><br><br><br><br><br><br><br></strong></p></div>","null","exposition_attractiveness","html-keyboard-response","106","416376","0.0-106.0","1212121212121212121212121212121212121212121","2023-11-2 14:59","","","","","51","img/12 WM-232.jpg","",""
"3593.2999999988824","<div class='conf_div'><p style='margin-bottom: 28px; margin-top: 0px;'><strong>How attractive do you think this face is?</strong></p><img class='central_stim' src='img/cardback2o.jpg'></img><div id='mySlider5' style='width: 100%; text-align: center;'><table style='text-align: center; margin: auto; padding: 0;'><tr><td class='rightTdVas'>0<br>Very<br>unattractive</td><td><div style='position: relative;'><img src='responseScales/vas_banded.png' id='customSlider2' width='600px' height='60px'><div id='customTick2' class='customTick2'><img id='customTick2_fig' src='responseScales/tick2.png' width='25px' height='25px'></div></div></td><td class='rightTdVas'>100<br>Very<br>attractive</td></tr><tr><td colspan='3'><div id='mySlider5_value'></div></td></tr></table></div></div>","","","html-vas-custom","107","419972","0.0-107.0","1212121212121212121212121212121212121212121","2023-11-2 14:59","","","","","51","","attractiveness_scale","72"
"null","<div class='conf_div'><p  style=' margin-bottom:28px; margin-top:0px; ' ><strong>How attractive do you think this face is?</strong></p><img class='central_stim' src='img/5 BM-046.jpg' </img><p  style=' margin-top: -60px;' ><strong><br><br><br><br><br><br><br></strong></p></div>","null","exposition_attractiveness","html-keyboard-response","108","422982","0.0-108.0","1212121212121212121212121212121212121212121","2023-11-2 14:59","","","","","52","img/5 BM-046.jpg","",""
"3017.199999999255","<div class='conf_div'><p style='margin-bottom: 28px; margin-top: 0px;'><strong>How attractive do you think this face is?</strong></p><img class='central_stim' src='img/cardback2o.jpg'></img><div id='mySlider5' style='width: 100%; text-align: center;'><table style='text-align: center; margin: auto; padding: 0;'><tr><td class='rightTdVas'>0<br>Very<br>unattractive</td><td><div style='position: relative;'><img src='responseScales/vas_banded.png' id='customSlider2' width='600px' height='60px'><div id='customTick2' class='customTick2'><img id='customTick2_fig' src='responseScales/tick2.png' width='25px' height='25px'></div></div></td><td class='rightTdVas'>100<br>Very<br>attractive</td></tr><tr><td colspan='3'><div id='mySlider5_value'></div></td></tr></table></div></div>","","","html-vas-custom","109","426002","0.0-109.0","1212121212121212121212121212121212121212121","2023-11-2 14:59","","","","","52","","attractiveness_scale","74"
"null","<div class='conf_div'><p  style=' margin-bottom:28px; margin-top:0px; ' ><strong>How attractive do you think this face is?</strong></p><img class='central_stim' src='img/14 AM-253.jpg' </img><p  style=' margin-top: -60px;' ><strong><br><br><br><br><br><br><br></strong></p></div>","null","exposition_attractiveness","html-keyboard-response","110","429005","0.0-110.0","1212121212121212121212121212121212121212121","2023-11-2 14:59","","","","","53","img/14 AM-253.jpg","",""
"1889.5999999996275","<div class='conf_div'><p style='margin-bottom: 28px; margin-top: 0px;'><strong>How attractive do you think this face is?</strong></p><img class='central_stim' src='img/cardback2o.jpg'></img><div id='mySlider5' style='width: 100%; text-align: center;'><table style='text-align: center; margin: auto; padding: 0;'><tr><td class='rightTdVas'>0<br>Very<br>unattractive</td><td><div style='position: relative;'><img src='responseScales/vas_banded.png' id='customSlider2' width='600px' height='60px'><div id='customTick2' class='customTick2'><img id='customTick2_fig' src='responseScales/tick2.png' width='25px' height='25px'></div></div></td><td class='rightTdVas'>100<br>Very<br>attractive</td></tr><tr><td colspan='3'><div id='mySlider5_value'></div></td></tr></table></div></div>","","","html-vas-custom","111","430897","0.0-111.0","1212121212121212121212121212121212121212121","2023-11-2 14:59","","","","","53","","attractiveness_scale","82"
"null","<div class='conf_div'><p  style=' margin-bottom:28px; margin-top:0px; ' ><strong>How attractive do you think this face is?</strong></p><img class='central_stim' src='img/17 WF-219.jpg' </img><p  style=' margin-top: -60px;' ><strong><br><br><br><br><br><br><br></strong></p></div>","null","exposition_attractiveness","html-keyboard-response","112","433912","0.0-112.0","1212121212121212121212121212121212121212121","2023-11-2 14:59","","","","","54","img/17 WF-219.jpg","",""
"2387.699999999255","<div class='conf_div'><p style='margin-bottom: 28px; margin-top: 0px;'><strong>How attractive do you think this face is?</strong></p><img class='central_stim' src='img/cardback2o.jpg'></img><div id='mySlider5' style='width: 100%; text-align: center;'><table style='text-align: center; margin: auto; padding: 0;'><tr><td class='rightTdVas'>0<br>Very<br>unattractive</td><td><div style='position: relative;'><img src='responseScales/vas_banded.png' id='customSlider2' width='600px' height='60px'><div id='customTick2' class='customTick2'><img id='customTick2_fig' src='responseScales/tick2.png' width='25px' height='25px'></div></div></td><td class='rightTdVas'>100<br>Very<br>attractive</td></tr><tr><td colspan='3'><div id='mySlider5_value'></div></td></tr></table></div></div>","","","html-vas-custom","113","436304","0.0-113.0","1212121212121212121212121212121212121212121","2023-11-2 14:59","","","","","54","","attractiveness_scale","84"
"null","<div class='conf_div'><p  style=' margin-bottom:28px; margin-top:0px; ' ><strong>How attractive do you think this face is?</strong></p><img class='central_stim' src='img/18 LF-249.jpg' </img><p  style=' margin-top: -60px;' ><strong><br><br><br><br><br><br><br></strong></p></div>","null","exposition_attractiveness","html-keyboard-response","114","439307","0.0-114.0","1212121212121212121212121212121212121212121","2023-11-2 14:59","","","","","55","img/18 LF-249.jpg","",""
"2444.800000000745","<div class='conf_div'><p style='margin-bottom: 28px; margin-top: 0px;'><strong>How attractive do you think this face is?</strong></p><img class='central_stim' src='img/cardback2o.jpg'></img><div id='mySlider5' style='width: 100%; text-align: center;'><table style='text-align: center; margin: auto; padding: 0;'><tr><td class='rightTdVas'>0<br>Very<br>unattractive</td><td><div style='position: relative;'><img src='responseScales/vas_banded.png' id='customSlider2' width='600px' height='60px'><div id='customTick2' class='customTick2'><img id='customTick2_fig' src='responseScales/tick2.png' width='25px' height='25px'></div></div></td><td class='rightTdVas'>100<br>Very<br>attractive</td></tr><tr><td colspan='3'><div id='mySlider5_value'></div></td></tr></table></div></div>","","","html-vas-custom","115","441755","0.0-115.0","1212121212121212121212121212121212121212121","2023-11-2 14:59","","","","","55","","attractiveness_scale","81"
"null","<div class='conf_div'><p  style=' margin-bottom:28px; margin-top:0px; ' ><strong>How attractive do you think this face is?</strong></p><img class='central_stim' src='img/1 AF-205.jpg' </img><p  style=' margin-top: -60px;' ><strong><br><br><br><br><br><br><br></strong></p></div>","null","exposition_attractiveness","html-keyboard-response","116","444769","0.0-116.0","1212121212121212121212121212121212121212121","2023-11-2 14:59","","","","","56","img/1 AF-205.jpg","",""
"3753.5999999996275","<div class='conf_div'><p style='margin-bottom: 28px; margin-top: 0px;'><strong>How attractive do you think this face is?</strong></p><img class='central_stim' src='img/cardback2o.jpg'></img><div id='mySlider5' style='width: 100%; text-align: center;'><table style='text-align: center; margin: auto; padding: 0;'><tr><td class='rightTdVas'>0<br>Very<br>unattractive</td><td><div style='position: relative;'><img src='responseScales/vas_banded.png' id='customSlider2' width='600px' height='60px'><div id='customTick2' class='customTick2'><img id='customTick2_fig' src='responseScales/tick2.png' width='25px' height='25px'></div></div></td><td class='rightTdVas'>100<br>Very<br>attractive</td></tr><tr><td colspan='3'><div id='mySlider5_value'></div></td></tr></table></div></div>","","","html-vas-custom","117","448525","0.0-117.0","1212121212121212121212121212121212121212121","2023-11-2 14:59","","","","","56","","attractiveness_scale","86"
"null","<div class='conf_div'><p  style=' margin-bottom:28px; margin-top:0px; ' ><strong>How attractive do you think this face is?</strong></p><img class='central_stim' src='img/10 WF-243.jpg' </img><p  style=' margin-top: -60px;' ><strong><br><br><br><br><br><br><br></strong></p></div>","null","exposition_attractiveness","html-keyboard-response","118","451534","0.0-118.0","1212121212121212121212121212121212121212121","2023-11-2 14:59","","","","","57","img/10 WF-243.jpg","",""
"2794.300000000745","<div class='conf_div'><p style='margin-bottom: 28px; margin-top: 0px;'><strong>How attractive do you think this face is?</strong></p><img class='central_stim' src='img/cardback2o.jpg'></img><div id='mySlider5' style='width: 100%; text-align: center;'><table style='text-align: center; margin: auto; padding: 0;'><tr><td class='rightTdVas'>0<br>Very<br>unattractive</td><td><div style='position: relative;'><img src='responseScales/vas_banded.png' id='customSlider2' width='600px' height='60px'><div id='customTick2' class='customTick2'><img id='customTick2_fig' src='responseScales/tick2.png' width='25px' height='25px'></div></div></td><td class='rightTdVas'>100<br>Very<br>attractive</td></tr><tr><td colspan='3'><div id='mySlider5_value'></div></td></tr></table></div></div>","","","html-vas-custom","119","454332","0.0-119.0","1212121212121212121212121212121212121212121","2023-11-2 14:59","","","","","57","","attractiveness_scale","38"
"null","<div class='conf_div'><p  style=' margin-bottom:28px; margin-top:0px; ' ><strong>How attractive do you think this face is?</strong></p><img class='central_stim' src='img/13 BF-217.jpg' </img><p  style=' margin-top: -60px;' ><strong><br><br><br><br><br><br><br></strong></p></div>","null","exposition_attractiveness","html-keyboard-response","120","457337","0.0-120.0","1212121212121212121212121212121212121212121","2023-11-2 14:59","","","","","58","img/13 BF-217.jpg","",""
"3432.89999999851","<div class='conf_div'><p style='margin-bottom: 28px; margin-top: 0px;'><strong>How attractive do you think this face is?</strong></p><img class='central_stim' src='img/cardback2o.jpg'></img><div id='mySlider5' style='width: 100%; text-align: center;'><table style='text-align: center; margin: auto; padding: 0;'><tr><td class='rightTdVas'>0<br>Very<br>unattractive</td><td><div style='position: relative;'><img src='responseScales/vas_banded.png' id='customSlider2' width='600px' height='60px'><div id='customTick2' class='customTick2'><img id='customTick2_fig' src='responseScales/tick2.png' width='25px' height='25px'></div></div></td><td class='rightTdVas'>100<br>Very<br>attractive</td></tr><tr><td colspan='3'><div id='mySlider5_value'></div></td></tr></table></div></div>","","","html-vas-custom","121","460773","0.0-121.0","1212121212121212121212121212121212121212121","2023-11-2 14:59","","","","","58","","attractiveness_scale","61"
"null","<div class='conf_div'><p  style=' margin-bottom:28px; margin-top:0px; ' ><strong>How attractive do you think this face is?</strong></p><img class='central_stim' src='img/8 LM-246.jpg' </img><p  style=' margin-top: -60px;' ><strong><br><br><br><br><br><br><br></strong></p></div>","null","exposition_attractiveness","html-keyboard-response","122","463965","0.0-122.0","1212121212121212121212121212121212121212121","2023-11-2 14:59","","","","","59","img/8 LM-246.jpg","",""
"199400.80000000075","<div class='conf_div'><p style='margin-bottom: 28px; margin-top: 0px;'><strong>How attractive do you think this face is?</strong></p><img class='central_stim' src='img/cardback2o.jpg'></img><div id='mySlider5' style='width: 100%; text-align: center;'><table style='text-align: center; margin: auto; padding: 0;'><tr><td class='rightTdVas'>0<br>Very<br>unattractive</td><td><div style='position: relative;'><img src='responseScales/vas_banded.png' id='customSlider2' width='600px' height='60px'><div id='customTick2' class='customTick2'><img id='customTick2_fig' src='responseScales/tick2.png' width='25px' height='25px'></div></div></td><td class='rightTdVas'>100<br>Very<br>attractive</td></tr><tr><td colspan='3'><div id='mySlider5_value'></div></td></tr></table></div></div>","","","html-vas-custom","123","663369","0.0-123.0","1212121212121212121212121212121212121212121","2023-11-2 14:59","","","","","59","","attractiveness_scale","71"
