"rt","stimulus","key_press","screenid","trial_type","trial_index","time_elapsed","internal_node_id","subject","date","final_height_px","final_width_px","scale_factor","value","attr_trial","attractiveness_face","screen_id","attractiveness_rating"
"636415.4","Welcome to the experiment. <br> We will start with a quick calibration of the screen. <br> Press any key to begin","32","welcome","html-keyboard-response","0","636438","0.0-0.0","22222222222222222222222222222222222222222222222222222222222222222222222","2023-11-5 13:52","","","","","","","",""
"","","","","resize","1","640779","0.0-1.0","22222222222222222222222222222222222222222222222222222222222222222222222","2023-11-5 13:52","","304","0.6004938271604938","","","","",""
"","","","","call-function","2","640782","0.0-2.0","22222222222222222222222222222222222222222222222222222222222222222222222","2023-11-5 13:52","","","","","","","",""
"7589.600000000093","<div style='width: 70%;margin:0 auto;'><h1>First part: Attractiveness Rating</h1><p>In this first part of the experiment you will be asked to rate how attractive you find different faces. Each face will appear only for a limited time (3 seconds) and you will then be able to give your rating on scale from 0-100.<p>Try to pay attention so that you do not miss the faces!</p><p>Press any key when you are ready</p></div>","32","instruction_attractiveness","html-keyboard-response","3","648372","0.0-3.0","22222222222222222222222222222222222222222222222222222222222222222222222","2023-11-5 13:52","","","","","","","",""
"null","<div class='conf_div'><p  style=' margin-bottom:28px; margin-top:0px; ' ><strong>How attractive do you think this face is?</strong></p><img class='central_stim' src='img/13 BF-243.jpg' </img><p  style=' margin-top: -60px;' ><strong><br><br><br><br><br><br><br></strong></p></div>","null","exposition_attractiveness","html-keyboard-response","4","651378","0.0-4.0","22222222222222222222222222222222222222222222222222222222222222222222222","2023-11-5 13:52","","","","","0","img/13 BF-243.jpg","",""
"4290.399999999907","<div class='conf_div'><p style='margin-bottom: 28px; margin-top: 0px;'><strong>How attractive do you think this face is?</strong></p><img class='central_stim' src='img/cardback2o.jpg'></img><div id='mySlider5' style='width: 100%; text-align: center;'><table style='text-align: center; margin: auto; padding: 0;'><tr><td class='rightTdVas'>0<br>Very<br>unattractive</td><td><div style='position: relative;'><img src='responseScales/vas_banded.png' id='customSlider2' width='600px' height='60px'><div id='customTick2' class='customTick2'><img id='customTick2_fig' src='responseScales/tick2.png' width='25px' height='25px'></div></div></td><td class='rightTdVas'>100<br>Very<br>attractive</td></tr><tr><td colspan='3'><div id='mySlider5_value'></div></td></tr></table></div></div>","","","html-vas-custom","5","655672","0.0-5.0","22222222222222222222222222222222222222222222222222222222222222222222222","2023-11-5 13:52","","","","","0","","attractiveness_scale","72"
"null","<div class='conf_div'><p  style=' margin-bottom:28px; margin-top:0px; ' ><strong>How attractive do you think this face is?</strong></p><img class='central_stim' src='img/6 LF-209.jpg' </img><p  style=' margin-top: -60px;' ><strong><br><br><br><br><br><br><br></strong></p></div>","null","exposition_attractiveness","html-keyboard-response","6","658685","0.0-6.0","22222222222222222222222222222222222222222222222222222222222222222222222","2023-11-5 13:52","","","","","1","img/6 LF-209.jpg","",""
"3429.399999999907","<div class='conf_div'><p style='margin-bottom: 28px; margin-top: 0px;'><strong>How attractive do you think this face is?</strong></p><img class='central_stim' src='img/cardback2o.jpg'></img><div id='mySlider5' style='width: 100%; text-align: center;'><table style='text-align: center; margin: auto; padding: 0;'><tr><td class='rightTdVas'>0<br>Very<br>unattractive</td><td><div style='position: relative;'><img src='responseScales/vas_banded.png' id='customSlider2' width='600px' height='60px'><div id='customTick2' class='customTick2'><img id='customTick2_fig' src='responseScales/tick2.png' width='25px' height='25px'></div></div></td><td class='rightTdVas'>100<br>Very<br>attractive</td></tr><tr><td colspan='3'><div id='mySlider5_value'></div></td></tr></table></div></div>","","","html-vas-custom","7","662117","0.0-7.0","22222222222222222222222222222222222222222222222222222222222222222222222","2023-11-5 13:52","","","","","1","","attractiveness_scale","65"
"null","<div class='conf_div'><p  style=' margin-bottom:28px; margin-top:0px; ' ><strong>How attractive do you think this face is?</strong></p><img class='central_stim' src='img/13 BF-217.jpg' </img><p  style=' margin-top: -60px;' ><strong><br><br><br><br><br><br><br></strong></p></div>","null","exposition_attractiveness","html-keyboard-response","8","665126","0.0-8.0","22222222222222222222222222222222222222222222222222222222222222222222222","2023-11-5 13:52","","","","","2","img/13 BF-217.jpg","",""
"3361.2000000001863","<div class='conf_div'><p style='margin-bottom: 28px; margin-top: 0px;'><strong>How attractive do you think this face is?</strong></p><img class='central_stim' src='img/cardback2o.jpg'></img><div id='mySlider5' style='width: 100%; text-align: center;'><table style='text-align: center; margin: auto; padding: 0;'><tr><td class='rightTdVas'>0<br>Very<br>unattractive</td><td><div style='position: relative;'><img src='responseScales/vas_banded.png' id='customSlider2' width='600px' height='60px'><div id='customTick2' class='customTick2'><img id='customTick2_fig' src='responseScales/tick2.png' width='25px' height='25px'></div></div></td><td class='rightTdVas'>100<br>Very<br>attractive</td></tr><tr><td colspan='3'><div id='mySlider5_value'></div></td></tr></table></div></div>","","","html-vas-custom","9","668490","0.0-9.0","22222222222222222222222222222222222222222222222222222222222222222222222","2023-11-5 13:52","","","","","2","","attractiveness_scale","73"
"null","<div class='conf_div'><p  style=' margin-bottom:28px; margin-top:0px; ' ><strong>How attractive do you think this face is?</strong></p><img class='central_stim' src='img/18 LF-232.jpg' </img><p  style=' margin-top: -60px;' ><strong><br><br><br><br><br><br><br></strong></p></div>","null","exposition_attractiveness","html-keyboard-response","10","671495","0.0-10.0","22222222222222222222222222222222222222222222222222222222222222222222222","2023-11-5 13:52","","","","","3","img/18 LF-232.jpg","",""
"3076.7999999998137","<div class='conf_div'><p style='margin-bottom: 28px; margin-top: 0px;'><strong>How attractive do you think this face is?</strong></p><img class='central_stim' src='img/cardback2o.jpg'></img><div id='mySlider5' style='width: 100%; text-align: center;'><table style='text-align: center; margin: auto; padding: 0;'><tr><td class='rightTdVas'>0<br>Very<br>unattractive</td><td><div style='position: relative;'><img src='responseScales/vas_banded.png' id='customSlider2' width='600px' height='60px'><div id='customTick2' class='customTick2'><img id='customTick2_fig' src='responseScales/tick2.png' width='25px' height='25px'></div></div></td><td class='rightTdVas'>100<br>Very<br>attractive</td></tr><tr><td colspan='3'><div id='mySlider5_value'></div></td></tr></table></div></div>","","","html-vas-custom","11","674574","0.0-11.0","22222222222222222222222222222222222222222222222222222222222222222222222","2023-11-5 13:52","","","","","3","","attractiveness_scale","42"
"null","<div class='conf_div'><p  style=' margin-bottom:28px; margin-top:0px; ' ><strong>How attractive do you think this face is?</strong></p><img class='central_stim' src='img/20 AM-230.jpg' </img><p  style=' margin-top: -60px;' ><strong><br><br><br><br><br><br><br></strong></p></div>","null","exposition_attractiveness","html-keyboard-response","12","677589","0.0-12.0","22222222222222222222222222222222222222222222222222222222222222222222222","2023-11-5 13:52","","","","","4","img/20 AM-230.jpg","",""
"2955.1999999999534","<div class='conf_div'><p style='margin-bottom: 28px; margin-top: 0px;'><strong>How attractive do you think this face is?</strong></p><img class='central_stim' src='img/cardback2o.jpg'></img><div id='mySlider5' style='width: 100%; text-align: center;'><table style='text-align: center; margin: auto; padding: 0;'><tr><td class='rightTdVas'>0<br>Very<br>unattractive</td><td><div style='position: relative;'><img src='responseScales/vas_banded.png' id='customSlider2' width='600px' height='60px'><div id='customTick2' class='customTick2'><img id='customTick2_fig' src='responseScales/tick2.png' width='25px' height='25px'></div></div></td><td class='rightTdVas'>100<br>Very<br>attractive</td></tr><tr><td colspan='3'><div id='mySlider5_value'></div></td></tr></table></div></div>","","","html-vas-custom","13","680547","0.0-13.0","22222222222222222222222222222222222222222222222222222222222222222222222","2023-11-5 13:52","","","","","4","","attractiveness_scale","27"
"null","<div class='conf_div'><p  style=' margin-bottom:28px; margin-top:0px; ' ><strong>How attractive do you think this face is?</strong></p><img class='central_stim' src='img/20 AM-213.jpg' </img><p  style=' margin-top: -60px;' ><strong><br><br><br><br><br><br><br></strong></p></div>","null","exposition_attractiveness","html-keyboard-response","14","683561","0.0-14.0","22222222222222222222222222222222222222222222222222222222222222222222222","2023-11-5 13:52","","","","","5","img/20 AM-213.jpg","",""
"2311.1999999999534","<div class='conf_div'><p style='margin-bottom: 28px; margin-top: 0px;'><strong>How attractive do you think this face is?</strong></p><img class='central_stim' src='img/cardback2o.jpg'></img><div id='mySlider5' style='width: 100%; text-align: center;'><table style='text-align: center; margin: auto; padding: 0;'><tr><td class='rightTdVas'>0<br>Very<br>unattractive</td><td><div style='position: relative;'><img src='responseScales/vas_banded.png' id='customSlider2' width='600px' height='60px'><div id='customTick2' class='customTick2'><img id='customTick2_fig' src='responseScales/tick2.png' width='25px' height='25px'></div></div></td><td class='rightTdVas'>100<br>Very<br>attractive</td></tr><tr><td colspan='3'><div id='mySlider5_value'></div></td></tr></table></div></div>","","","html-vas-custom","15","685874","0.0-15.0","22222222222222222222222222222222222222222222222222222222222222222222222","2023-11-5 13:52","","","","","5","","attractiveness_scale","50"
"null","<div class='conf_div'><p  style=' margin-bottom:28px; margin-top:0px; ' ><strong>How attractive do you think this face is?</strong></p><img class='central_stim' src='img/18 LF-249.jpg' </img><p  style=' margin-top: -60px;' ><strong><br><br><br><br><br><br><br></strong></p></div>","null","exposition_attractiveness","html-keyboard-response","16","688887","0.0-16.0","22222222222222222222222222222222222222222222222222222222222222222222222","2023-11-5 13:52","","","","","6","img/18 LF-249.jpg","",""
"2737","<div class='conf_div'><p style='margin-bottom: 28px; margin-top: 0px;'><strong>How attractive do you think this face is?</strong></p><img class='central_stim' src='img/cardback2o.jpg'></img><div id='mySlider5' style='width: 100%; text-align: center;'><table style='text-align: center; margin: auto; padding: 0;'><tr><td class='rightTdVas'>0<br>Very<br>unattractive</td><td><div style='position: relative;'><img src='responseScales/vas_banded.png' id='customSlider2' width='600px' height='60px'><div id='customTick2' class='customTick2'><img id='customTick2_fig' src='responseScales/tick2.png' width='25px' height='25px'></div></div></td><td class='rightTdVas'>100<br>Very<br>attractive</td></tr><tr><td colspan='3'><div id='mySlider5_value'></div></td></tr></table></div></div>","","","html-vas-custom","17","691627","0.0-17.0","22222222222222222222222222222222222222222222222222222222222222222222222","2023-11-5 13:52","","","","","6","","attractiveness_scale","62"
"null","<div class='conf_div'><p  style=' margin-bottom:28px; margin-top:0px; ' ><strong>How attractive do you think this face is?</strong></p><img class='central_stim' src='img/17 WF-205.jpg' </img><p  style=' margin-top: -60px;' ><strong><br><br><br><br><br><br><br></strong></p></div>","null","exposition_attractiveness","html-keyboard-response","18","694629","0.0-18.0","22222222222222222222222222222222222222222222222222222222222222222222222","2023-11-5 13:52","","","","","7","img/17 WF-205.jpg","",""
"2793.5","<div class='conf_div'><p style='margin-bottom: 28px; margin-top: 0px;'><strong>How attractive do you think this face is?</strong></p><img class='central_stim' src='img/cardback2o.jpg'></img><div id='mySlider5' style='width: 100%; text-align: center;'><table style='text-align: center; margin: auto; padding: 0;'><tr><td class='rightTdVas'>0<br>Very<br>unattractive</td><td><div style='position: relative;'><img src='responseScales/vas_banded.png' id='customSlider2' width='600px' height='60px'><div id='customTick2' class='customTick2'><img id='customTick2_fig' src='responseScales/tick2.png' width='25px' height='25px'></div></div></td><td class='rightTdVas'>100<br>Very<br>attractive</td></tr><tr><td colspan='3'><div id='mySlider5_value'></div></td></tr></table></div></div>","","","html-vas-custom","19","697424","0.0-19.0","22222222222222222222222222222222222222222222222222222222222222222222222","2023-11-5 13:52","","","","","7","","attractiveness_scale","82"
"null","<div class='conf_div'><p  style=' margin-bottom:28px; margin-top:0px; ' ><strong>How attractive do you think this face is?</strong></p><img class='central_stim' src='img/2 AF-216.jpg' </img><p  style=' margin-top: -60px;' ><strong><br><br><br><br><br><br><br></strong></p></div>","null","exposition_attractiveness","html-keyboard-response","20","700428","0.0-20.0","22222222222222222222222222222222222222222222222222222222222222222222222","2023-11-5 13:52","","","","","8","img/2 AF-216.jpg","",""
"3149.600000000093","<div class='conf_div'><p style='margin-bottom: 28px; margin-top: 0px;'><strong>How attractive do you think this face is?</strong></p><img class='central_stim' src='img/cardback2o.jpg'></img><div id='mySlider5' style='width: 100%; text-align: center;'><table style='text-align: center; margin: auto; padding: 0;'><tr><td class='rightTdVas'>0<br>Very<br>unattractive</td><td><div style='position: relative;'><img src='responseScales/vas_banded.png' id='customSlider2' width='600px' height='60px'><div id='customTick2' class='customTick2'><img id='customTick2_fig' src='responseScales/tick2.png' width='25px' height='25px'></div></div></td><td class='rightTdVas'>100<br>Very<br>attractive</td></tr><tr><td colspan='3'><div id='mySlider5_value'></div></td></tr></table></div></div>","","","html-vas-custom","21","703580","0.0-21.0","22222222222222222222222222222222222222222222222222222222222222222222222","2023-11-5 13:52","","","","","8","","attractiveness_scale","72"
"null","<div class='conf_div'><p  style=' margin-bottom:28px; margin-top:0px; ' ><strong>How attractive do you think this face is?</strong></p><img class='central_stim' src='img/19 BM-240.jpg' </img><p  style=' margin-top: -60px;' ><strong><br><br><br><br><br><br><br></strong></p></div>","null","exposition_attractiveness","html-keyboard-response","22","706583","0.0-22.0","22222222222222222222222222222222222222222222222222222222222222222222222","2023-11-5 13:52","","","","","9","img/19 BM-240.jpg","",""
"3743","<div class='conf_div'><p style='margin-bottom: 28px; margin-top: 0px;'><strong>How attractive do you think this face is?</strong></p><img class='central_stim' src='img/cardback2o.jpg'></img><div id='mySlider5' style='width: 100%; text-align: center;'><table style='text-align: center; margin: auto; padding: 0;'><tr><td class='rightTdVas'>0<br>Very<br>unattractive</td><td><div style='position: relative;'><img src='responseScales/vas_banded.png' id='customSlider2' width='600px' height='60px'><div id='customTick2' class='customTick2'><img id='customTick2_fig' src='responseScales/tick2.png' width='25px' height='25px'></div></div></td><td class='rightTdVas'>100<br>Very<br>attractive</td></tr><tr><td colspan='3'><div id='mySlider5_value'></div></td></tr></table></div></div>","","","html-vas-custom","23","710328","0.0-23.0","22222222222222222222222222222222222222222222222222222222222222222222222","2023-11-5 13:52","","","","","9","","attractiveness_scale","65"
"null","<div class='conf_div'><p  style=' margin-bottom:28px; margin-top:0px; ' ><strong>How attractive do you think this face is?</strong></p><img class='central_stim' src='img/16 BF-249.jpg' </img><p  style=' margin-top: -60px;' ><strong><br><br><br><br><br><br><br></strong></p></div>","null","exposition_attractiveness","html-keyboard-response","24","713342","0.0-24.0","22222222222222222222222222222222222222222222222222222222222222222222222","2023-11-5 13:52","","","","","10","img/16 BF-249.jpg","",""
"5995.700000000186","<div class='conf_div'><p style='margin-bottom: 28px; margin-top: 0px;'><strong>How attractive do you think this face is?</strong></p><img class='central_stim' src='img/cardback2o.jpg'></img><div id='mySlider5' style='width: 100%; text-align: center;'><table style='text-align: center; margin: auto; padding: 0;'><tr><td class='rightTdVas'>0<br>Very<br>unattractive</td><td><div style='position: relative;'><img src='responseScales/vas_banded.png' id='customSlider2' width='600px' height='60px'><div id='customTick2' class='customTick2'><img id='customTick2_fig' src='responseScales/tick2.png' width='25px' height='25px'></div></div></td><td class='rightTdVas'>100<br>Very<br>attractive</td></tr><tr><td colspan='3'><div id='mySlider5_value'></div></td></tr></table></div></div>","","","html-vas-custom","25","719340","0.0-25.0","22222222222222222222222222222222222222222222222222222222222222222222222","2023-11-5 13:52","","","","","10","","attractiveness_scale","53"
"null","<div class='conf_div'><p  style=' margin-bottom:28px; margin-top:0px; ' ><strong>How attractive do you think this face is?</strong></p><img class='central_stim' src='img/3 BF-039.jpg' </img><p  style=' margin-top: -60px;' ><strong><br><br><br><br><br><br><br></strong></p></div>","null","exposition_attractiveness","html-keyboard-response","26","722354","0.0-26.0","22222222222222222222222222222222222222222222222222222222222222222222222","2023-11-5 13:52","","","","","11","img/3 BF-039.jpg","",""
"5423.800000000047","<div class='conf_div'><p style='margin-bottom: 28px; margin-top: 0px;'><strong>How attractive do you think this face is?</strong></p><img class='central_stim' src='img/cardback2o.jpg'></img><div id='mySlider5' style='width: 100%; text-align: center;'><table style='text-align: center; margin: auto; padding: 0;'><tr><td class='rightTdVas'>0<br>Very<br>unattractive</td><td><div style='position: relative;'><img src='responseScales/vas_banded.png' id='customSlider2' width='600px' height='60px'><div id='customTick2' class='customTick2'><img id='customTick2_fig' src='responseScales/tick2.png' width='25px' height='25px'></div></div></td><td class='rightTdVas'>100<br>Very<br>attractive</td></tr><tr><td colspan='3'><div id='mySlider5_value'></div></td></tr></table></div></div>","","","html-vas-custom","27","727780","0.0-27.0","22222222222222222222222222222222222222222222222222222222222222222222222","2023-11-5 13:52","","","","","11","","attractiveness_scale","63"
"null","<div class='conf_div'><p  style=' margin-bottom:28px; margin-top:0px; ' ><strong>How attractive do you think this face is?</strong></p><img class='central_stim' src='img/15 WM-231.jpg' </img><p  style=' margin-top: -60px;' ><strong><br><br><br><br><br><br><br></strong></p></div>","null","exposition_attractiveness","html-keyboard-response","28","730797","0.0-28.0","22222222222222222222222222222222222222222222222222222222222222222222222","2023-11-5 13:52","","","","","12","img/15 WM-231.jpg","",""
"4257.90000000014","<div class='conf_div'><p style='margin-bottom: 28px; margin-top: 0px;'><strong>How attractive do you think this face is?</strong></p><img class='central_stim' src='img/cardback2o.jpg'></img><div id='mySlider5' style='width: 100%; text-align: center;'><table style='text-align: center; margin: auto; padding: 0;'><tr><td class='rightTdVas'>0<br>Very<br>unattractive</td><td><div style='position: relative;'><img src='responseScales/vas_banded.png' id='customSlider2' width='600px' height='60px'><div id='customTick2' class='customTick2'><img id='customTick2_fig' src='responseScales/tick2.png' width='25px' height='25px'></div></div></td><td class='rightTdVas'>100<br>Very<br>attractive</td></tr><tr><td colspan='3'><div id='mySlider5_value'></div></td></tr></table></div></div>","","","html-vas-custom","29","735058","0.0-29.0","22222222222222222222222222222222222222222222222222222222222222222222222","2023-11-5 13:52","","","","","12","","attractiveness_scale","54"
"null","<div class='conf_div'><p  style=' margin-bottom:28px; margin-top:0px; ' ><strong>How attractive do you think this face is?</strong></p><img class='central_stim' src='img/2 AF-230.jpg' </img><p  style=' margin-top: -60px;' ><strong><br><br><br><br><br><br><br></strong></p></div>","null","exposition_attractiveness","html-keyboard-response","30","738065","0.0-30.0","22222222222222222222222222222222222222222222222222222222222222222222222","2023-11-5 13:52","","","","","13","img/2 AF-230.jpg","",""
"2806.2000000001863","<div class='conf_div'><p style='margin-bottom: 28px; margin-top: 0px;'><strong>How attractive do you think this face is?</strong></p><img class='central_stim' src='img/cardback2o.jpg'></img><div id='mySlider5' style='width: 100%; text-align: center;'><table style='text-align: center; margin: auto; padding: 0;'><tr><td class='rightTdVas'>0<br>Very<br>unattractive</td><td><div style='position: relative;'><img src='responseScales/vas_banded.png' id='customSlider2' width='600px' height='60px'><div id='customTick2' class='customTick2'><img id='customTick2_fig' src='responseScales/tick2.png' width='25px' height='25px'></div></div></td><td class='rightTdVas'>100<br>Very<br>attractive</td></tr><tr><td colspan='3'><div id='mySlider5_value'></div></td></tr></table></div></div>","","","html-vas-custom","31","740874","0.0-31.0","22222222222222222222222222222222222222222222222222222222222222222222222","2023-11-5 13:52","","","","","13","","attractiveness_scale","69"
"null","<div class='conf_div'><p  style=' margin-bottom:28px; margin-top:0px; ' ><strong>How attractive do you think this face is?</strong></p><img class='central_stim' src='img/18 LF-251.jpg' </img><p  style=' margin-top: -60px;' ><strong><br><br><br><br><br><br><br></strong></p></div>","null","exposition_attractiveness","html-keyboard-response","32","743886","0.0-32.0","22222222222222222222222222222222222222222222222222222222222222222222222","2023-11-5 13:52","","","","","14","img/18 LF-251.jpg","",""
"3068.2000000001863","<div class='conf_div'><p style='margin-bottom: 28px; margin-top: 0px;'><strong>How attractive do you think this face is?</strong></p><img class='central_stim' src='img/cardback2o.jpg'></img><div id='mySlider5' style='width: 100%; text-align: center;'><table style='text-align: center; margin: auto; padding: 0;'><tr><td class='rightTdVas'>0<br>Very<br>unattractive</td><td><div style='position: relative;'><img src='responseScales/vas_banded.png' id='customSlider2' width='600px' height='60px'><div id='customTick2' class='customTick2'><img id='customTick2_fig' src='responseScales/tick2.png' width='25px' height='25px'></div></div></td><td class='rightTdVas'>100<br>Very<br>attractive</td></tr><tr><td colspan='3'><div id='mySlider5_value'></div></td></tr></table></div></div>","","","html-vas-custom","33","746957","0.0-33.0","22222222222222222222222222222222222222222222222222222222222222222222222","2023-11-5 13:52","","","","","14","","attractiveness_scale","74"
"null","<div class='conf_div'><p  style=' margin-bottom:28px; margin-top:0px; ' ><strong>How attractive do you think this face is?</strong></p><img class='central_stim' src='img/17 WF-024.jpg' </img><p  style=' margin-top: -60px;' ><strong><br><br><br><br><br><br><br></strong></p></div>","null","exposition_attractiveness","html-keyboard-response","34","749960","0.0-34.0","22222222222222222222222222222222222222222222222222222222222222222222222","2023-11-5 13:52","","","","","15","img/17 WF-024.jpg","",""
"9024.300000000047","<div class='conf_div'><p style='margin-bottom: 28px; margin-top: 0px;'><strong>How attractive do you think this face is?</strong></p><img class='central_stim' src='img/cardback2o.jpg'></img><div id='mySlider5' style='width: 100%; text-align: center;'><table style='text-align: center; margin: auto; padding: 0;'><tr><td class='rightTdVas'>0<br>Very<br>unattractive</td><td><div style='position: relative;'><img src='responseScales/vas_banded.png' id='customSlider2' width='600px' height='60px'><div id='customTick2' class='customTick2'><img id='customTick2_fig' src='responseScales/tick2.png' width='25px' height='25px'></div></div></td><td class='rightTdVas'>100<br>Very<br>attractive</td></tr><tr><td colspan='3'><div id='mySlider5_value'></div></td></tr></table></div></div>","","","html-vas-custom","35","758987","0.0-35.0","22222222222222222222222222222222222222222222222222222222222222222222222","2023-11-5 13:52","","","","","15","","attractiveness_scale","73"
"null","<div class='conf_div'><p  style=' margin-bottom:28px; margin-top:0px; ' ><strong>How attractive do you think this face is?</strong></p><img class='central_stim' src='img/4 BM-039.jpg' </img><p  style=' margin-top: -60px;' ><strong><br><br><br><br><br><br><br></strong></p></div>","null","exposition_attractiveness","html-keyboard-response","36","761993","0.0-36.0","22222222222222222222222222222222222222222222222222222222222222222222222","2023-11-5 13:52","","","","","16","img/4 BM-039.jpg","",""
"4204.300000000047","<div class='conf_div'><p style='margin-bottom: 28px; margin-top: 0px;'><strong>How attractive do you think this face is?</strong></p><img class='central_stim' src='img/cardback2o.jpg'></img><div id='mySlider5' style='width: 100%; text-align: center;'><table style='text-align: center; margin: auto; padding: 0;'><tr><td class='rightTdVas'>0<br>Very<br>unattractive</td><td><div style='position: relative;'><img src='responseScales/vas_banded.png' id='customSlider2' width='600px' height='60px'><div id='customTick2' class='customTick2'><img id='customTick2_fig' src='responseScales/tick2.png' width='25px' height='25px'></div></div></td><td class='rightTdVas'>100<br>Very<br>attractive</td></tr><tr><td colspan='3'><div id='mySlider5_value'></div></td></tr></table></div></div>","","","html-vas-custom","37","766200","0.0-37.0","22222222222222222222222222222222222222222222222222222222222222222222222","2023-11-5 13:52","","","","","16","","attractiveness_scale","38"
"null","<div class='conf_div'><p  style=' margin-bottom:28px; margin-top:0px; ' ><strong>How attractive do you think this face is?</strong></p><img class='central_stim' src='img/14 AM-218.jpg' </img><p  style=' margin-top: -60px;' ><strong><br><br><br><br><br><br><br></strong></p></div>","null","exposition_attractiveness","html-keyboard-response","38","769215","0.0-38.0","22222222222222222222222222222222222222222222222222222222222222222222222","2023-11-5 13:52","","","","","17","img/14 AM-218.jpg","",""
"10810.100000000093","<div class='conf_div'><p style='margin-bottom: 28px; margin-top: 0px;'><strong>How attractive do you think this face is?</strong></p><img class='central_stim' src='img/cardback2o.jpg'></img><div id='mySlider5' style='width: 100%; text-align: center;'><table style='text-align: center; margin: auto; padding: 0;'><tr><td class='rightTdVas'>0<br>Very<br>unattractive</td><td><div style='position: relative;'><img src='responseScales/vas_banded.png' id='customSlider2' width='600px' height='60px'><div id='customTick2' class='customTick2'><img id='customTick2_fig' src='responseScales/tick2.png' width='25px' height='25px'></div></div></td><td class='rightTdVas'>100<br>Very<br>attractive</td></tr><tr><td colspan='3'><div id='mySlider5_value'></div></td></tr></table></div></div>","","","html-vas-custom","39","780029","0.0-39.0","22222222222222222222222222222222222222222222222222222222222222222222222","2023-11-5 13:52","","","","","17","","attractiveness_scale","60"
"null","<div class='conf_div'><p  style=' margin-bottom:28px; margin-top:0px; ' ><strong>How attractive do you think this face is?</strong></p><img class='central_stim' src='img/10 WF-208.jpg' </img><p  style=' margin-top: -60px;' ><strong><br><br><br><br><br><br><br></strong></p></div>","null","exposition_attractiveness","html-keyboard-response","40","783040","0.0-40.0","22222222222222222222222222222222222222222222222222222222222222222222222","2023-11-5 13:52","","","","","18","img/10 WF-208.jpg","",""
"2493.8000000000466","<div class='conf_div'><p style='margin-bottom: 28px; margin-top: 0px;'><strong>How attractive do you think this face is?</strong></p><img class='central_stim' src='img/cardback2o.jpg'></img><div id='mySlider5' style='width: 100%; text-align: center;'><table style='text-align: center; margin: auto; padding: 0;'><tr><td class='rightTdVas'>0<br>Very<br>unattractive</td><td><div style='position: relative;'><img src='responseScales/vas_banded.png' id='customSlider2' width='600px' height='60px'><div id='customTick2' class='customTick2'><img id='customTick2_fig' src='responseScales/tick2.png' width='25px' height='25px'></div></div></td><td class='rightTdVas'>100<br>Very<br>attractive</td></tr><tr><td colspan='3'><div id='mySlider5_value'></div></td></tr></table></div></div>","","","html-vas-custom","41","785535","0.0-41.0","22222222222222222222222222222222222222222222222222222222222222222222222","2023-11-5 13:52","","","","","18","","attractiveness_scale","25"
"null","<div class='conf_div'><p  style=' margin-bottom:28px; margin-top:0px; ' ><strong>How attractive do you think this face is?</strong></p><img class='central_stim' src='img/11 WF-031.jpg' </img><p  style=' margin-top: -60px;' ><strong><br><br><br><br><br><br><br></strong></p></div>","null","exposition_attractiveness","html-keyboard-response","42","788548","0.0-42.0","22222222222222222222222222222222222222222222222222222222222222222222222","2023-11-5 13:52","","","","","19","img/11 WF-031.jpg","",""
"4227.399999999907","<div class='conf_div'><p style='margin-bottom: 28px; margin-top: 0px;'><strong>How attractive do you think this face is?</strong></p><img class='central_stim' src='img/cardback2o.jpg'></img><div id='mySlider5' style='width: 100%; text-align: center;'><table style='text-align: center; margin: auto; padding: 0;'><tr><td class='rightTdVas'>0<br>Very<br>unattractive</td><td><div style='position: relative;'><img src='responseScales/vas_banded.png' id='customSlider2' width='600px' height='60px'><div id='customTick2' class='customTick2'><img id='customTick2_fig' src='responseScales/tick2.png' width='25px' height='25px'></div></div></td><td class='rightTdVas'>100<br>Very<br>attractive</td></tr><tr><td colspan='3'><div id='mySlider5_value'></div></td></tr></table></div></div>","","","html-vas-custom","43","792777","0.0-43.0","22222222222222222222222222222222222222222222222222222222222222222222222","2023-11-5 13:52","","","","","19","","attractiveness_scale","66"
"null","<div class='conf_div'><p  style=' margin-bottom:28px; margin-top:0px; ' ><strong>How attractive do you think this face is?</strong></p><img class='central_stim' src='img/9 LM-226.jpg' </img><p  style=' margin-top: -60px;' ><strong><br><br><br><br><br><br><br></strong></p></div>","null","exposition_attractiveness","html-keyboard-response","44","795784","0.0-44.0","22222222222222222222222222222222222222222222222222222222222222222222222","2023-11-5 13:52","","","","","20","img/9 LM-226.jpg","",""
"3065.8000000000466","<div class='conf_div'><p style='margin-bottom: 28px; margin-top: 0px;'><strong>How attractive do you think this face is?</strong></p><img class='central_stim' src='img/cardback2o.jpg'></img><div id='mySlider5' style='width: 100%; text-align: center;'><table style='text-align: center; margin: auto; padding: 0;'><tr><td class='rightTdVas'>0<br>Very<br>unattractive</td><td><div style='position: relative;'><img src='responseScales/vas_banded.png' id='customSlider2' width='600px' height='60px'><div id='customTick2' class='customTick2'><img id='customTick2_fig' src='responseScales/tick2.png' width='25px' height='25px'></div></div></td><td class='rightTdVas'>100<br>Very<br>attractive</td></tr><tr><td colspan='3'><div id='mySlider5_value'></div></td></tr></table></div></div>","","","html-vas-custom","45","798852","0.0-45.0","22222222222222222222222222222222222222222222222222222222222222222222222","2023-11-5 13:52","","","","","20","","attractiveness_scale","71"
"null","<div class='conf_div'><p  style=' margin-bottom:28px; margin-top:0px; ' ><strong>How attractive do you think this face is?</strong></p><img class='central_stim' src='img/15 WM-029.jpg' </img><p  style=' margin-top: -60px;' ><strong><br><br><br><br><br><br><br></strong></p></div>","null","exposition_attractiveness","html-keyboard-response","46","801857","0.0-46.0","22222222222222222222222222222222222222222222222222222222222222222222222","2023-11-5 13:52","","","","","21","img/15 WM-029.jpg","",""
"3786.5","<div class='conf_div'><p style='margin-bottom: 28px; margin-top: 0px;'><strong>How attractive do you think this face is?</strong></p><img class='central_stim' src='img/cardback2o.jpg'></img><div id='mySlider5' style='width: 100%; text-align: center;'><table style='text-align: center; margin: auto; padding: 0;'><tr><td class='rightTdVas'>0<br>Very<br>unattractive</td><td><div style='position: relative;'><img src='responseScales/vas_banded.png' id='customSlider2' width='600px' height='60px'><div id='customTick2' class='customTick2'><img id='customTick2_fig' src='responseScales/tick2.png' width='25px' height='25px'></div></div></td><td class='rightTdVas'>100<br>Very<br>attractive</td></tr><tr><td colspan='3'><div id='mySlider5_value'></div></td></tr></table></div></div>","","","html-vas-custom","47","805646","0.0-47.0","22222222222222222222222222222222222222222222222222222222222222222222222","2023-11-5 13:52","","","","","21","","attractiveness_scale","75"
"null","<div class='conf_div'><p  style=' margin-bottom:28px; margin-top:0px; ' ><strong>How attractive do you think this face is?</strong></p><img class='central_stim' src='img/6 LF-214.jpg' </img><p  style=' margin-top: -60px;' ><strong><br><br><br><br><br><br><br></strong></p></div>","null","exposition_attractiveness","html-keyboard-response","48","808657","0.0-48.0","22222222222222222222222222222222222222222222222222222222222222222222222","2023-11-5 13:52","","","","","22","img/6 LF-214.jpg","",""
"3596","<div class='conf_div'><p style='margin-bottom: 28px; margin-top: 0px;'><strong>How attractive do you think this face is?</strong></p><img class='central_stim' src='img/cardback2o.jpg'></img><div id='mySlider5' style='width: 100%; text-align: center;'><table style='text-align: center; margin: auto; padding: 0;'><tr><td class='rightTdVas'>0<br>Very<br>unattractive</td><td><div style='position: relative;'><img src='responseScales/vas_banded.png' id='customSlider2' width='600px' height='60px'><div id='customTick2' class='customTick2'><img id='customTick2_fig' src='responseScales/tick2.png' width='25px' height='25px'></div></div></td><td class='rightTdVas'>100<br>Very<br>attractive</td></tr><tr><td colspan='3'><div id='mySlider5_value'></div></td></tr></table></div></div>","","","html-vas-custom","49","812255","0.0-49.0","22222222222222222222222222222222222222222222222222222222222222222222222","2023-11-5 13:52","","","","","22","","attractiveness_scale","36"
"null","<div class='conf_div'><p  style=' margin-bottom:28px; margin-top:0px; ' ><strong>How attractive do you think this face is?</strong></p><img class='central_stim' src='img/7 LF-254.jpg' </img><p  style=' margin-top: -60px;' ><strong><br><br><br><br><br><br><br></strong></p></div>","null","exposition_attractiveness","html-keyboard-response","50","815260","0.0-50.0","22222222222222222222222222222222222222222222222222222222222222222222222","2023-11-5 13:52","","","","","23","img/7 LF-254.jpg","",""
"3550.4000000001397","<div class='conf_div'><p style='margin-bottom: 28px; margin-top: 0px;'><strong>How attractive do you think this face is?</strong></p><img class='central_stim' src='img/cardback2o.jpg'></img><div id='mySlider5' style='width: 100%; text-align: center;'><table style='text-align: center; margin: auto; padding: 0;'><tr><td class='rightTdVas'>0<br>Very<br>unattractive</td><td><div style='position: relative;'><img src='responseScales/vas_banded.png' id='customSlider2' width='600px' height='60px'><div id='customTick2' class='customTick2'><img id='customTick2_fig' src='responseScales/tick2.png' width='25px' height='25px'></div></div></td><td class='rightTdVas'>100<br>Very<br>attractive</td></tr><tr><td colspan='3'><div id='mySlider5_value'></div></td></tr></table></div></div>","","","html-vas-custom","51","818813","0.0-51.0","22222222222222222222222222222222222222222222222222222222222222222222222","2023-11-5 13:52","","","","","23","","attractiveness_scale","74"
"null","<div class='conf_div'><p  style=' margin-bottom:28px; margin-top:0px; ' ><strong>How attractive do you think this face is?</strong></p><img class='central_stim' src='img/19 BM-239.jpg' </img><p  style=' margin-top: -60px;' ><strong><br><br><br><br><br><br><br></strong></p></div>","null","exposition_attractiveness","html-keyboard-response","52","821824","0.0-52.0","22222222222222222222222222222222222222222222222222222222222222222222222","2023-11-5 13:52","","","","","24","img/19 BM-239.jpg","",""
"4556.899999999907","<div class='conf_div'><p style='margin-bottom: 28px; margin-top: 0px;'><strong>How attractive do you think this face is?</strong></p><img class='central_stim' src='img/cardback2o.jpg'></img><div id='mySlider5' style='width: 100%; text-align: center;'><table style='text-align: center; margin: auto; padding: 0;'><tr><td class='rightTdVas'>0<br>Very<br>unattractive</td><td><div style='position: relative;'><img src='responseScales/vas_banded.png' id='customSlider2' width='600px' height='60px'><div id='customTick2' class='customTick2'><img id='customTick2_fig' src='responseScales/tick2.png' width='25px' height='25px'></div></div></td><td class='rightTdVas'>100<br>Very<br>attractive</td></tr><tr><td colspan='3'><div id='mySlider5_value'></div></td></tr></table></div></div>","","","html-vas-custom","53","826383","0.0-53.0","22222222222222222222222222222222222222222222222222222222222222222222222","2023-11-5 13:52","","","","","24","","attractiveness_scale","37"
"null","<div class='conf_div'><p  style=' margin-bottom:28px; margin-top:0px; ' ><strong>How attractive do you think this face is?</strong></p><img class='central_stim' src='img/6 LF-210.jpg' </img><p  style=' margin-top: -60px;' ><strong><br><br><br><br><br><br><br></strong></p></div>","null","exposition_attractiveness","html-keyboard-response","54","829388","0.0-54.0","22222222222222222222222222222222222222222222222222222222222222222222222","2023-11-5 13:52","","","","","25","img/6 LF-210.jpg","",""
"4995.899999999907","<div class='conf_div'><p style='margin-bottom: 28px; margin-top: 0px;'><strong>How attractive do you think this face is?</strong></p><img class='central_stim' src='img/cardback2o.jpg'></img><div id='mySlider5' style='width: 100%; text-align: center;'><table style='text-align: center; margin: auto; padding: 0;'><tr><td class='rightTdVas'>0<br>Very<br>unattractive</td><td><div style='position: relative;'><img src='responseScales/vas_banded.png' id='customSlider2' width='600px' height='60px'><div id='customTick2' class='customTick2'><img id='customTick2_fig' src='responseScales/tick2.png' width='25px' height='25px'></div></div></td><td class='rightTdVas'>100<br>Very<br>attractive</td></tr><tr><td colspan='3'><div id='mySlider5_value'></div></td></tr></table></div></div>","","","html-vas-custom","55","834385","0.0-55.0","22222222222222222222222222222222222222222222222222222222222222222222222","2023-11-5 13:52","","","","","25","","attractiveness_scale","65"
"null","<div class='conf_div'><p  style=' margin-bottom:28px; margin-top:0px; ' ><strong>How attractive do you think this face is?</strong></p><img class='central_stim' src='img/19 BM-247.jpg' </img><p  style=' margin-top: -60px;' ><strong><br><br><br><br><br><br><br></strong></p></div>","null","exposition_attractiveness","html-keyboard-response","56","837390","0.0-56.0","22222222222222222222222222222222222222222222222222222222222222222222222","2023-11-5 13:52","","","","","26","img/19 BM-247.jpg","",""
"3606.4000000001397","<div class='conf_div'><p style='margin-bottom: 28px; margin-top: 0px;'><strong>How attractive do you think this face is?</strong></p><img class='central_stim' src='img/cardback2o.jpg'></img><div id='mySlider5' style='width: 100%; text-align: center;'><table style='text-align: center; margin: auto; padding: 0;'><tr><td class='rightTdVas'>0<br>Very<br>unattractive</td><td><div style='position: relative;'><img src='responseScales/vas_banded.png' id='customSlider2' width='600px' height='60px'><div id='customTick2' class='customTick2'><img id='customTick2_fig' src='responseScales/tick2.png' width='25px' height='25px'></div></div></td><td class='rightTdVas'>100<br>Very<br>attractive</td></tr><tr><td colspan='3'><div id='mySlider5_value'></div></td></tr></table></div></div>","","","html-vas-custom","57","840998","0.0-57.0","22222222222222222222222222222222222222222222222222222222222222222222222","2023-11-5 13:52","","","","","26","","attractiveness_scale","75"
"null","<div class='conf_div'><p  style=' margin-bottom:28px; margin-top:0px; ' ><strong>How attractive do you think this face is?</strong></p><img class='central_stim' src='img/15 WM-257.jpg' </img><p  style=' margin-top: -60px;' ><strong><br><br><br><br><br><br><br></strong></p></div>","null","exposition_attractiveness","html-keyboard-response","58","844007","0.0-58.0","22222222222222222222222222222222222222222222222222222222222222222222222","2023-11-5 13:52","","","","","27","img/15 WM-257.jpg","",""
"8043.800000000047","<div class='conf_div'><p style='margin-bottom: 28px; margin-top: 0px;'><strong>How attractive do you think this face is?</strong></p><img class='central_stim' src='img/cardback2o.jpg'></img><div id='mySlider5' style='width: 100%; text-align: center;'><table style='text-align: center; margin: auto; padding: 0;'><tr><td class='rightTdVas'>0<br>Very<br>unattractive</td><td><div style='position: relative;'><img src='responseScales/vas_banded.png' id='customSlider2' width='600px' height='60px'><div id='customTick2' class='customTick2'><img id='customTick2_fig' src='responseScales/tick2.png' width='25px' height='25px'></div></div></td><td class='rightTdVas'>100<br>Very<br>attractive</td></tr><tr><td colspan='3'><div id='mySlider5_value'></div></td></tr></table></div></div>","","","html-vas-custom","59","852053","0.0-59.0","22222222222222222222222222222222222222222222222222222222222222222222222","2023-11-5 13:52","","","","","27","","attractiveness_scale","79"
"null","<div class='conf_div'><p  style=' margin-bottom:28px; margin-top:0px; ' ><strong>How attractive do you think this face is?</strong></p><img class='central_stim' src='img/10 WF-243.jpg' </img><p  style=' margin-top: -60px;' ><strong><br><br><br><br><br><br><br></strong></p></div>","null","exposition_attractiveness","html-keyboard-response","60","855067","0.0-60.0","22222222222222222222222222222222222222222222222222222222222222222222222","2023-11-5 13:52","","","","","28","img/10 WF-243.jpg","",""
"2857.1999999999534","<div class='conf_div'><p style='margin-bottom: 28px; margin-top: 0px;'><strong>How attractive do you think this face is?</strong></p><img class='central_stim' src='img/cardback2o.jpg'></img><div id='mySlider5' style='width: 100%; text-align: center;'><table style='text-align: center; margin: auto; padding: 0;'><tr><td class='rightTdVas'>0<br>Very<br>unattractive</td><td><div style='position: relative;'><img src='responseScales/vas_banded.png' id='customSlider2' width='600px' height='60px'><div id='customTick2' class='customTick2'><img id='customTick2_fig' src='responseScales/tick2.png' width='25px' height='25px'></div></div></td><td class='rightTdVas'>100<br>Very<br>attractive</td></tr><tr><td colspan='3'><div id='mySlider5_value'></div></td></tr></table></div></div>","","","html-vas-custom","61","857927","0.0-61.0","22222222222222222222222222222222222222222222222222222222222222222222222","2023-11-5 13:52","","","","","28","","attractiveness_scale","81"
"null","<div class='conf_div'><p  style=' margin-bottom:28px; margin-top:0px; ' ><strong>How attractive do you think this face is?</strong></p><img class='central_stim' src='img/5 BM-046.jpg' </img><p  style=' margin-top: -60px;' ><strong><br><br><br><br><br><br><br></strong></p></div>","null","exposition_attractiveness","html-keyboard-response","62","860933","0.0-62.0","22222222222222222222222222222222222222222222222222222222222222222222222","2023-11-5 13:52","","","","","29","img/5 BM-046.jpg","",""
"2222.5","<div class='conf_div'><p style='margin-bottom: 28px; margin-top: 0px;'><strong>How attractive do you think this face is?</strong></p><img class='central_stim' src='img/cardback2o.jpg'></img><div id='mySlider5' style='width: 100%; text-align: center;'><table style='text-align: center; margin: auto; padding: 0;'><tr><td class='rightTdVas'>0<br>Very<br>unattractive</td><td><div style='position: relative;'><img src='responseScales/vas_banded.png' id='customSlider2' width='600px' height='60px'><div id='customTick2' class='customTick2'><img id='customTick2_fig' src='responseScales/tick2.png' width='25px' height='25px'></div></div></td><td class='rightTdVas'>100<br>Very<br>attractive</td></tr><tr><td colspan='3'><div id='mySlider5_value'></div></td></tr></table></div></div>","","","html-vas-custom","63","863158","0.0-63.0","22222222222222222222222222222222222222222222222222222222222222222222222","2023-11-5 13:52","","","","","29","","attractiveness_scale","88"
"null","<div class='conf_div'><p  style=' margin-bottom:28px; margin-top:0px; ' ><strong>How attractive do you think this face is?</strong></p><img class='central_stim' src='img/16 BF-212.jpg' </img><p  style=' margin-top: -60px;' ><strong><br><br><br><br><br><br><br></strong></p></div>","null","exposition_attractiveness","html-keyboard-response","64","866639","0.0-64.0","22222222222222222222222222222222222222222222222222222222222222222222222","2023-11-5 13:52","","","","","30","img/16 BF-212.jpg","",""
"8654.800000000047","<div class='conf_div'><p style='margin-bottom: 28px; margin-top: 0px;'><strong>How attractive do you think this face is?</strong></p><img class='central_stim' src='img/cardback2o.jpg'></img><div id='mySlider5' style='width: 100%; text-align: center;'><table style='text-align: center; margin: auto; padding: 0;'><tr><td class='rightTdVas'>0<br>Very<br>unattractive</td><td><div style='position: relative;'><img src='responseScales/vas_banded.png' id='customSlider2' width='600px' height='60px'><div id='customTick2' class='customTick2'><img id='customTick2_fig' src='responseScales/tick2.png' width='25px' height='25px'></div></div></td><td class='rightTdVas'>100<br>Very<br>attractive</td></tr><tr><td colspan='3'><div id='mySlider5_value'></div></td></tr></table></div></div>","","","html-vas-custom","65","875299","0.0-65.0","22222222222222222222222222222222222222222222222222222222222222222222222","2023-11-5 13:52","","","","","30","","attractiveness_scale","68"
"null","<div class='conf_div'><p  style=' margin-bottom:28px; margin-top:0px; ' ><strong>How attractive do you think this face is?</strong></p><img class='central_stim' src='img/3 BF-025.jpg' </img><p  style=' margin-top: -60px;' ><strong><br><br><br><br><br><br><br></strong></p></div>","null","exposition_attractiveness","html-keyboard-response","66","878302","0.0-66.0","22222222222222222222222222222222222222222222222222222222222222222222222","2023-11-5 13:52","","","","","31","img/3 BF-025.jpg","",""
"3904.399999999907","<div class='conf_div'><p style='margin-bottom: 28px; margin-top: 0px;'><strong>How attractive do you think this face is?</strong></p><img class='central_stim' src='img/cardback2o.jpg'></img><div id='mySlider5' style='width: 100%; text-align: center;'><table style='text-align: center; margin: auto; padding: 0;'><tr><td class='rightTdVas'>0<br>Very<br>unattractive</td><td><div style='position: relative;'><img src='responseScales/vas_banded.png' id='customSlider2' width='600px' height='60px'><div id='customTick2' class='customTick2'><img id='customTick2_fig' src='responseScales/tick2.png' width='25px' height='25px'></div></div></td><td class='rightTdVas'>100<br>Very<br>attractive</td></tr><tr><td colspan='3'><div id='mySlider5_value'></div></td></tr></table></div></div>","","","html-vas-custom","67","882208","0.0-67.0","22222222222222222222222222222222222222222222222222222222222222222222222","2023-11-5 13:52","","","","","31","","attractiveness_scale","31"
"null","<div class='conf_div'><p  style=' margin-bottom:28px; margin-top:0px; ' ><strong>How attractive do you think this face is?</strong></p><img class='central_stim' src='img/11 WF-230.jpg' </img><p  style=' margin-top: -60px;' ><strong><br><br><br><br><br><br><br></strong></p></div>","null","exposition_attractiveness","html-keyboard-response","68","885224","0.0-68.0","22222222222222222222222222222222222222222222222222222222222222222222222","2023-11-5 13:52","","","","","32","img/11 WF-230.jpg","",""
"3244.5","<div class='conf_div'><p style='margin-bottom: 28px; margin-top: 0px;'><strong>How attractive do you think this face is?</strong></p><img class='central_stim' src='img/cardback2o.jpg'></img><div id='mySlider5' style='width: 100%; text-align: center;'><table style='text-align: center; margin: auto; padding: 0;'><tr><td class='rightTdVas'>0<br>Very<br>unattractive</td><td><div style='position: relative;'><img src='responseScales/vas_banded.png' id='customSlider2' width='600px' height='60px'><div id='customTick2' class='customTick2'><img id='customTick2_fig' src='responseScales/tick2.png' width='25px' height='25px'></div></div></td><td class='rightTdVas'>100<br>Very<br>attractive</td></tr><tr><td colspan='3'><div id='mySlider5_value'></div></td></tr></table></div></div>","","","html-vas-custom","69","888470","0.0-69.0","22222222222222222222222222222222222222222222222222222222222222222222222","2023-11-5 13:52","","","","","32","","attractiveness_scale","14"
"null","<div class='conf_div'><p  style=' margin-bottom:28px; margin-top:0px; ' ><strong>How attractive do you think this face is?</strong></p><img class='central_stim' src='img/8 LM-243.jpg' </img><p  style=' margin-top: -60px;' ><strong><br><br><br><br><br><br><br></strong></p></div>","null","exposition_attractiveness","html-keyboard-response","70","891483","0.0-70.0","22222222222222222222222222222222222222222222222222222222222222222222222","2023-11-5 13:52","","","","","33","img/8 LM-243.jpg","",""
"6724.5","<div class='conf_div'><p style='margin-bottom: 28px; margin-top: 0px;'><strong>How attractive do you think this face is?</strong></p><img class='central_stim' src='img/cardback2o.jpg'></img><div id='mySlider5' style='width: 100%; text-align: center;'><table style='text-align: center; margin: auto; padding: 0;'><tr><td class='rightTdVas'>0<br>Very<br>unattractive</td><td><div style='position: relative;'><img src='responseScales/vas_banded.png' id='customSlider2' width='600px' height='60px'><div id='customTick2' class='customTick2'><img id='customTick2_fig' src='responseScales/tick2.png' width='25px' height='25px'></div></div></td><td class='rightTdVas'>100<br>Very<br>attractive</td></tr><tr><td colspan='3'><div id='mySlider5_value'></div></td></tr></table></div></div>","","","html-vas-custom","71","898210","0.0-71.0","22222222222222222222222222222222222222222222222222222222222222222222222","2023-11-5 13:52","","","","","33","","attractiveness_scale","45"
"null","<div class='conf_div'><p  style=' margin-bottom:28px; margin-top:0px; ' ><strong>How attractive do you think this face is?</strong></p><img class='central_stim' src='img/3 BF-004.jpg' </img><p  style=' margin-top: -60px;' ><strong><br><br><br><br><br><br><br></strong></p></div>","null","exposition_attractiveness","html-keyboard-response","72","901224","0.0-72.0","22222222222222222222222222222222222222222222222222222222222222222222222","2023-11-5 13:52","","","","","34","img/3 BF-004.jpg","",""
"2525.1999999999534","<div class='conf_div'><p style='margin-bottom: 28px; margin-top: 0px;'><strong>How attractive do you think this face is?</strong></p><img class='central_stim' src='img/cardback2o.jpg'></img><div id='mySlider5' style='width: 100%; text-align: center;'><table style='text-align: center; margin: auto; padding: 0;'><tr><td class='rightTdVas'>0<br>Very<br>unattractive</td><td><div style='position: relative;'><img src='responseScales/vas_banded.png' id='customSlider2' width='600px' height='60px'><div id='customTick2' class='customTick2'><img id='customTick2_fig' src='responseScales/tick2.png' width='25px' height='25px'></div></div></td><td class='rightTdVas'>100<br>Very<br>attractive</td></tr><tr><td colspan='3'><div id='mySlider5_value'></div></td></tr></table></div></div>","","","html-vas-custom","73","903752","0.0-73.0","22222222222222222222222222222222222222222222222222222222222222222222222","2023-11-5 13:52","","","","","34","","attractiveness_scale","33"
"null","<div class='conf_div'><p  style=' margin-bottom:28px; margin-top:0px; ' ><strong>How attractive do you think this face is?</strong></p><img class='central_stim' src='img/1 AF-205.jpg' </img><p  style=' margin-top: -60px;' ><strong><br><br><br><br><br><br><br></strong></p></div>","null","exposition_attractiveness","html-keyboard-response","74","906763","0.0-74.0","22222222222222222222222222222222222222222222222222222222222222222222222","2023-11-5 13:52","","","","","35","img/1 AF-205.jpg","",""
"3364.600000000093","<div class='conf_div'><p style='margin-bottom: 28px; margin-top: 0px;'><strong>How attractive do you think this face is?</strong></p><img class='central_stim' src='img/cardback2o.jpg'></img><div id='mySlider5' style='width: 100%; text-align: center;'><table style='text-align: center; margin: auto; padding: 0;'><tr><td class='rightTdVas'>0<br>Very<br>unattractive</td><td><div style='position: relative;'><img src='responseScales/vas_banded.png' id='customSlider2' width='600px' height='60px'><div id='customTick2' class='customTick2'><img id='customTick2_fig' src='responseScales/tick2.png' width='25px' height='25px'></div></div></td><td class='rightTdVas'>100<br>Very<br>attractive</td></tr><tr><td colspan='3'><div id='mySlider5_value'></div></td></tr></table></div></div>","","","html-vas-custom","75","910131","0.0-75.0","22222222222222222222222222222222222222222222222222222222222222222222222","2023-11-5 13:52","","","","","35","","attractiveness_scale","56"
"null","<div class='conf_div'><p  style=' margin-bottom:28px; margin-top:0px; ' ><strong>How attractive do you think this face is?</strong></p><img class='central_stim' src='img/16 BF-208.jpg' </img><p  style=' margin-top: -60px;' ><strong><br><br><br><br><br><br><br></strong></p></div>","null","exposition_attractiveness","html-keyboard-response","76","913135","0.0-76.0","22222222222222222222222222222222222222222222222222222222222222222222222","2023-11-5 13:52","","","","","36","img/16 BF-208.jpg","",""
"4885.800000000047","<div class='conf_div'><p style='margin-bottom: 28px; margin-top: 0px;'><strong>How attractive do you think this face is?</strong></p><img class='central_stim' src='img/cardback2o.jpg'></img><div id='mySlider5' style='width: 100%; text-align: center;'><table style='text-align: center; margin: auto; padding: 0;'><tr><td class='rightTdVas'>0<br>Very<br>unattractive</td><td><div style='position: relative;'><img src='responseScales/vas_banded.png' id='customSlider2' width='600px' height='60px'><div id='customTick2' class='customTick2'><img id='customTick2_fig' src='responseScales/tick2.png' width='25px' height='25px'></div></div></td><td class='rightTdVas'>100<br>Very<br>attractive</td></tr><tr><td colspan='3'><div id='mySlider5_value'></div></td></tr></table></div></div>","","","html-vas-custom","77","918024","0.0-77.0","22222222222222222222222222222222222222222222222222222222222222222222222","2023-11-5 13:52","","","","","36","","attractiveness_scale","30"
"null","<div class='conf_div'><p  style=' margin-bottom:28px; margin-top:0px; ' ><strong>How attractive do you think this face is?</strong></p><img class='central_stim' src='img/7 LF-219.jpg' </img><p  style=' margin-top: -60px;' ><strong><br><br><br><br><br><br><br></strong></p></div>","null","exposition_attractiveness","html-keyboard-response","78","921032","0.0-78.0","22222222222222222222222222222222222222222222222222222222222222222222222","2023-11-5 13:52","","","","","37","img/7 LF-219.jpg","",""
"2199.1999999999534","<div class='conf_div'><p style='margin-bottom: 28px; margin-top: 0px;'><strong>How attractive do you think this face is?</strong></p><img class='central_stim' src='img/cardback2o.jpg'></img><div id='mySlider5' style='width: 100%; text-align: center;'><table style='text-align: center; margin: auto; padding: 0;'><tr><td class='rightTdVas'>0<br>Very<br>unattractive</td><td><div style='position: relative;'><img src='responseScales/vas_banded.png' id='customSlider2' width='600px' height='60px'><div id='customTick2' class='customTick2'><img id='customTick2_fig' src='responseScales/tick2.png' width='25px' height='25px'></div></div></td><td class='rightTdVas'>100<br>Very<br>attractive</td></tr><tr><td colspan='3'><div id='mySlider5_value'></div></td></tr></table></div></div>","","","html-vas-custom","79","923233","0.0-79.0","22222222222222222222222222222222222222222222222222222222222222222222222","2023-11-5 13:52","","","","","37","","attractiveness_scale","76"
"null","<div class='conf_div'><p  style=' margin-bottom:28px; margin-top:0px; ' ><strong>How attractive do you think this face is?</strong></p><img class='central_stim' src='img/5 BM-022.jpg' </img><p  style=' margin-top: -60px;' ><strong><br><br><br><br><br><br><br></strong></p></div>","null","exposition_attractiveness","html-keyboard-response","80","926235","0.0-80.0","22222222222222222222222222222222222222222222222222222222222222222222222","2023-11-5 13:52","","","","","38","img/5 BM-022.jpg","",""
"6425.90000000014","<div class='conf_div'><p style='margin-bottom: 28px; margin-top: 0px;'><strong>How attractive do you think this face is?</strong></p><img class='central_stim' src='img/cardback2o.jpg'></img><div id='mySlider5' style='width: 100%; text-align: center;'><table style='text-align: center; margin: auto; padding: 0;'><tr><td class='rightTdVas'>0<br>Very<br>unattractive</td><td><div style='position: relative;'><img src='responseScales/vas_banded.png' id='customSlider2' width='600px' height='60px'><div id='customTick2' class='customTick2'><img id='customTick2_fig' src='responseScales/tick2.png' width='25px' height='25px'></div></div></td><td class='rightTdVas'>100<br>Very<br>attractive</td></tr><tr><td colspan='3'><div id='mySlider5_value'></div></td></tr></table></div></div>","","","html-vas-custom","81","932663","0.0-81.0","22222222222222222222222222222222222222222222222222222222222222222222222","2023-11-5 13:52","","","","","38","","attractiveness_scale","55"
"null","<div class='conf_div'><p  style=' margin-bottom:28px; margin-top:0px; ' ><strong>How attractive do you think this face is?</strong></p><img class='central_stim' src='img/17 WF-219.jpg' </img><p  style=' margin-top: -60px;' ><strong><br><br><br><br><br><br><br></strong></p></div>","null","exposition_attractiveness","html-keyboard-response","82","935672","0.0-82.0","22222222222222222222222222222222222222222222222222222222222222222222222","2023-11-5 13:52","","","","","39","img/17 WF-219.jpg","",""
"2813.9000000001397","<div class='conf_div'><p style='margin-bottom: 28px; margin-top: 0px;'><strong>How attractive do you think this face is?</strong></p><img class='central_stim' src='img/cardback2o.jpg'></img><div id='mySlider5' style='width: 100%; text-align: center;'><table style='text-align: center; margin: auto; padding: 0;'><tr><td class='rightTdVas'>0<br>Very<br>unattractive</td><td><div style='position: relative;'><img src='responseScales/vas_banded.png' id='customSlider2' width='600px' height='60px'><div id='customTick2' class='customTick2'><img id='customTick2_fig' src='responseScales/tick2.png' width='25px' height='25px'></div></div></td><td class='rightTdVas'>100<br>Very<br>attractive</td></tr><tr><td colspan='3'><div id='mySlider5_value'></div></td></tr></table></div></div>","","","html-vas-custom","83","938488","0.0-83.0","22222222222222222222222222222222222222222222222222222222222222222222222","2023-11-5 13:52","","","","","39","","attractiveness_scale","72"
"null","<div class='conf_div'><p  style=' margin-bottom:28px; margin-top:0px; ' ><strong>How attractive do you think this face is?</strong></p><img class='central_stim' src='img/1 AF-226.jpg' </img><p  style=' margin-top: -60px;' ><strong><br><br><br><br><br><br><br></strong></p></div>","null","exposition_attractiveness","html-keyboard-response","84","941494","0.0-84.0","22222222222222222222222222222222222222222222222222222222222222222222222","2023-11-5 13:52","","","","","40","img/1 AF-226.jpg","",""
"3684.0999999998603","<div class='conf_div'><p style='margin-bottom: 28px; margin-top: 0px;'><strong>How attractive do you think this face is?</strong></p><img class='central_stim' src='img/cardback2o.jpg'></img><div id='mySlider5' style='width: 100%; text-align: center;'><table style='text-align: center; margin: auto; padding: 0;'><tr><td class='rightTdVas'>0<br>Very<br>unattractive</td><td><div style='position: relative;'><img src='responseScales/vas_banded.png' id='customSlider2' width='600px' height='60px'><div id='customTick2' class='customTick2'><img id='customTick2_fig' src='responseScales/tick2.png' width='25px' height='25px'></div></div></td><td class='rightTdVas'>100<br>Very<br>attractive</td></tr><tr><td colspan='3'><div id='mySlider5_value'></div></td></tr></table></div></div>","","","html-vas-custom","85","945181","0.0-85.0","22222222222222222222222222222222222222222222222222222222222222222222222","2023-11-5 13:52","","","","","40","","attractiveness_scale","54"
"null","<div class='conf_div'><p  style=' margin-bottom:28px; margin-top:0px; ' ><strong>How attractive do you think this face is?</strong></p><img class='central_stim' src='img/11 WF-021.jpg' </img><p  style=' margin-top: -60px;' ><strong><br><br><br><br><br><br><br></strong></p></div>","null","exposition_attractiveness","html-keyboard-response","86","948193","0.0-86.0","22222222222222222222222222222222222222222222222222222222222222222222222","2023-11-5 13:52","","","","","41","img/11 WF-021.jpg","",""
"5053","<div class='conf_div'><p style='margin-bottom: 28px; margin-top: 0px;'><strong>How attractive do you think this face is?</strong></p><img class='central_stim' src='img/cardback2o.jpg'></img><div id='mySlider5' style='width: 100%; text-align: center;'><table style='text-align: center; margin: auto; padding: 0;'><tr><td class='rightTdVas'>0<br>Very<br>unattractive</td><td><div style='position: relative;'><img src='responseScales/vas_banded.png' id='customSlider2' width='600px' height='60px'><div id='customTick2' class='customTick2'><img id='customTick2_fig' src='responseScales/tick2.png' width='25px' height='25px'></div></div></td><td class='rightTdVas'>100<br>Very<br>attractive</td></tr><tr><td colspan='3'><div id='mySlider5_value'></div></td></tr></table></div></div>","","","html-vas-custom","87","953247","0.0-87.0","22222222222222222222222222222222222222222222222222222222222222222222222","2023-11-5 13:52","","","","","41","","attractiveness_scale","43"
"null","<div class='conf_div'><p  style=' margin-bottom:28px; margin-top:0px; ' ><strong>How attractive do you think this face is?</strong></p><img class='central_stim' src='img/8 LM-210.jpg' </img><p  style=' margin-top: -60px;' ><strong><br><br><br><br><br><br><br></strong></p></div>","null","exposition_attractiveness","html-keyboard-response","88","956263","0.0-88.0","22222222222222222222222222222222222222222222222222222222222222222222222","2023-11-5 13:52","","","","","42","img/8 LM-210.jpg","",""
"2603","<div class='conf_div'><p style='margin-bottom: 28px; margin-top: 0px;'><strong>How attractive do you think this face is?</strong></p><img class='central_stim' src='img/cardback2o.jpg'></img><div id='mySlider5' style='width: 100%; text-align: center;'><table style='text-align: center; margin: auto; padding: 0;'><tr><td class='rightTdVas'>0<br>Very<br>unattractive</td><td><div style='position: relative;'><img src='responseScales/vas_banded.png' id='customSlider2' width='600px' height='60px'><div id='customTick2' class='customTick2'><img id='customTick2_fig' src='responseScales/tick2.png' width='25px' height='25px'></div></div></td><td class='rightTdVas'>100<br>Very<br>attractive</td></tr><tr><td colspan='3'><div id='mySlider5_value'></div></td></tr></table></div></div>","","","html-vas-custom","89","958868","0.0-89.0","22222222222222222222222222222222222222222222222222222222222222222222222","2023-11-5 13:52","","","","","42","","attractiveness_scale","61"
"null","<div class='conf_div'><p  style=' margin-bottom:28px; margin-top:0px; ' ><strong>How attractive do you think this face is?</strong></p><img class='central_stim' src='img/9 LM-220.jpg' </img><p  style=' margin-top: -60px;' ><strong><br><br><br><br><br><br><br></strong></p></div>","null","exposition_attractiveness","html-keyboard-response","90","961882","0.0-90.0","22222222222222222222222222222222222222222222222222222222222222222222222","2023-11-5 13:52","","","","","43","img/9 LM-220.jpg","",""
"3813.6999999999534","<div class='conf_div'><p style='margin-bottom: 28px; margin-top: 0px;'><strong>How attractive do you think this face is?</strong></p><img class='central_stim' src='img/cardback2o.jpg'></img><div id='mySlider5' style='width: 100%; text-align: center;'><table style='text-align: center; margin: auto; padding: 0;'><tr><td class='rightTdVas'>0<br>Very<br>unattractive</td><td><div style='position: relative;'><img src='responseScales/vas_banded.png' id='customSlider2' width='600px' height='60px'><div id='customTick2' class='customTick2'><img id='customTick2_fig' src='responseScales/tick2.png' width='25px' height='25px'></div></div></td><td class='rightTdVas'>100<br>Very<br>attractive</td></tr><tr><td colspan='3'><div id='mySlider5_value'></div></td></tr></table></div></div>","","","html-vas-custom","91","965698","0.0-91.0","22222222222222222222222222222222222222222222222222222222222222222222222","2023-11-5 13:52","","","","","43","","attractiveness_scale","72"
"null","<div class='conf_div'><p  style=' margin-bottom:28px; margin-top:0px; ' ><strong>How attractive do you think this face is?</strong></p><img class='central_stim' src='img/5 BM-041.jpg' </img><p  style=' margin-top: -60px;' ><strong><br><br><br><br><br><br><br></strong></p></div>","null","exposition_attractiveness","html-keyboard-response","92","968703","0.0-92.0","22222222222222222222222222222222222222222222222222222222222222222222222","2023-11-5 13:52","","","","","44","img/5 BM-041.jpg","",""
"4102.5","<div class='conf_div'><p style='margin-bottom: 28px; margin-top: 0px;'><strong>How attractive do you think this face is?</strong></p><img class='central_stim' src='img/cardback2o.jpg'></img><div id='mySlider5' style='width: 100%; text-align: center;'><table style='text-align: center; margin: auto; padding: 0;'><tr><td class='rightTdVas'>0<br>Very<br>unattractive</td><td><div style='position: relative;'><img src='responseScales/vas_banded.png' id='customSlider2' width='600px' height='60px'><div id='customTick2' class='customTick2'><img id='customTick2_fig' src='responseScales/tick2.png' width='25px' height='25px'></div></div></td><td class='rightTdVas'>100<br>Very<br>attractive</td></tr><tr><td colspan='3'><div id='mySlider5_value'></div></td></tr></table></div></div>","","","html-vas-custom","93","972808","0.0-93.0","22222222222222222222222222222222222222222222222222222222222222222222222","2023-11-5 13:52","","","","","44","","attractiveness_scale","71"
"null","<div class='conf_div'><p  style=' margin-bottom:28px; margin-top:0px; ' ><strong>How attractive do you think this face is?</strong></p><img class='central_stim' src='img/12 WM-011.jpg' </img><p  style=' margin-top: -60px;' ><strong><br><br><br><br><br><br><br></strong></p></div>","null","exposition_attractiveness","html-keyboard-response","94","975817","0.0-94.0","22222222222222222222222222222222222222222222222222222222222222222222222","2023-11-5 13:52","","","","","45","img/12 WM-011.jpg","",""
"3013.399999999907","<div class='conf_div'><p style='margin-bottom: 28px; margin-top: 0px;'><strong>How attractive do you think this face is?</strong></p><img class='central_stim' src='img/cardback2o.jpg'></img><div id='mySlider5' style='width: 100%; text-align: center;'><table style='text-align: center; margin: auto; padding: 0;'><tr><td class='rightTdVas'>0<br>Very<br>unattractive</td><td><div style='position: relative;'><img src='responseScales/vas_banded.png' id='customSlider2' width='600px' height='60px'><div id='customTick2' class='customTick2'><img id='customTick2_fig' src='responseScales/tick2.png' width='25px' height='25px'></div></div></td><td class='rightTdVas'>100<br>Very<br>attractive</td></tr><tr><td colspan='3'><div id='mySlider5_value'></div></td></tr></table></div></div>","","","html-vas-custom","95","978832","0.0-95.0","22222222222222222222222222222222222222222222222222222222222222222222222","2023-11-5 13:52","","","","","45","","attractiveness_scale","82"
"null","<div class='conf_div'><p  style=' margin-bottom:28px; margin-top:0px; ' ><strong>How attractive do you think this face is?</strong></p><img class='central_stim' src='img/10 WF-220.jpg' </img><p  style=' margin-top: -60px;' ><strong><br><br><br><br><br><br><br></strong></p></div>","null","exposition_attractiveness","html-keyboard-response","96","981835","0.0-96.0","22222222222222222222222222222222222222222222222222222222222222222222222","2023-11-5 13:52","","","","","46","img/10 WF-220.jpg","",""
"2425.2999999998137","<div class='conf_div'><p style='margin-bottom: 28px; margin-top: 0px;'><strong>How attractive do you think this face is?</strong></p><img class='central_stim' src='img/cardback2o.jpg'></img><div id='mySlider5' style='width: 100%; text-align: center;'><table style='text-align: center; margin: auto; padding: 0;'><tr><td class='rightTdVas'>0<br>Very<br>unattractive</td><td><div style='position: relative;'><img src='responseScales/vas_banded.png' id='customSlider2' width='600px' height='60px'><div id='customTick2' class='customTick2'><img id='customTick2_fig' src='responseScales/tick2.png' width='25px' height='25px'></div></div></td><td class='rightTdVas'>100<br>Very<br>attractive</td></tr><tr><td colspan='3'><div id='mySlider5_value'></div></td></tr></table></div></div>","","","html-vas-custom","97","984263","0.0-97.0","22222222222222222222222222222222222222222222222222222222222222222222222","2023-11-5 13:52","","","","","46","","attractiveness_scale","89"
"null","<div class='conf_div'><p  style=' margin-bottom:28px; margin-top:0px; ' ><strong>How attractive do you think this face is?</strong></p><img class='central_stim' src='img/4 BM-045.jpg' </img><p  style=' margin-top: -60px;' ><strong><br><br><br><br><br><br><br></strong></p></div>","null","exposition_attractiveness","html-keyboard-response","98","987265","0.0-98.0","22222222222222222222222222222222222222222222222222222222222222222222222","2023-11-5 13:52","","","","","47","img/4 BM-045.jpg","",""
"2707.899999999907","<div class='conf_div'><p style='margin-bottom: 28px; margin-top: 0px;'><strong>How attractive do you think this face is?</strong></p><img class='central_stim' src='img/cardback2o.jpg'></img><div id='mySlider5' style='width: 100%; text-align: center;'><table style='text-align: center; margin: auto; padding: 0;'><tr><td class='rightTdVas'>0<br>Very<br>unattractive</td><td><div style='position: relative;'><img src='responseScales/vas_banded.png' id='customSlider2' width='600px' height='60px'><div id='customTick2' class='customTick2'><img id='customTick2_fig' src='responseScales/tick2.png' width='25px' height='25px'></div></div></td><td class='rightTdVas'>100<br>Very<br>attractive</td></tr><tr><td colspan='3'><div id='mySlider5_value'></div></td></tr></table></div></div>","","","html-vas-custom","99","989975","0.0-99.0","22222222222222222222222222222222222222222222222222222222222222222222222","2023-11-5 13:52","","","","","47","","attractiveness_scale","60"
"null","<div class='conf_div'><p  style=' margin-bottom:28px; margin-top:0px; ' ><strong>How attractive do you think this face is?</strong></p><img class='central_stim' src='img/12 WM-232.jpg' </img><p  style=' margin-top: -60px;' ><strong><br><br><br><br><br><br><br></strong></p></div>","null","exposition_attractiveness","html-keyboard-response","100","992980","0.0-100.0","22222222222222222222222222222222222222222222222222222222222222222222222","2023-11-5 13:52","","","","","48","img/12 WM-232.jpg","",""
"3150.8000000000466","<div class='conf_div'><p style='margin-bottom: 28px; margin-top: 0px;'><strong>How attractive do you think this face is?</strong></p><img class='central_stim' src='img/cardback2o.jpg'></img><div id='mySlider5' style='width: 100%; text-align: center;'><table style='text-align: center; margin: auto; padding: 0;'><tr><td class='rightTdVas'>0<br>Very<br>unattractive</td><td><div style='position: relative;'><img src='responseScales/vas_banded.png' id='customSlider2' width='600px' height='60px'><div id='customTick2' class='customTick2'><img id='customTick2_fig' src='responseScales/tick2.png' width='25px' height='25px'></div></div></td><td class='rightTdVas'>100<br>Very<br>attractive</td></tr><tr><td colspan='3'><div id='mySlider5_value'></div></td></tr></table></div></div>","","","html-vas-custom","101","996133","0.0-101.0","22222222222222222222222222222222222222222222222222222222222222222222222","2023-11-5 13:52","","","","","48","","attractiveness_scale","66"
"null","<div class='conf_div'><p  style=' margin-bottom:28px; margin-top:0px; ' ><strong>How attractive do you think this face is?</strong></p><img class='central_stim' src='img/14 AM-211.jpg' </img><p  style=' margin-top: -60px;' ><strong><br><br><br><br><br><br><br></strong></p></div>","null","exposition_attractiveness","html-keyboard-response","102","999138","0.0-102.0","22222222222222222222222222222222222222222222222222222222222222222222222","2023-11-5 13:52","","","","","49","img/14 AM-211.jpg","",""
"1987.5","<div class='conf_div'><p style='margin-bottom: 28px; margin-top: 0px;'><strong>How attractive do you think this face is?</strong></p><img class='central_stim' src='img/cardback2o.jpg'></img><div id='mySlider5' style='width: 100%; text-align: center;'><table style='text-align: center; margin: auto; padding: 0;'><tr><td class='rightTdVas'>0<br>Very<br>unattractive</td><td><div style='position: relative;'><img src='responseScales/vas_banded.png' id='customSlider2' width='600px' height='60px'><div id='customTick2' class='customTick2'><img id='customTick2_fig' src='responseScales/tick2.png' width='25px' height='25px'></div></div></td><td class='rightTdVas'>100<br>Very<br>attractive</td></tr><tr><td colspan='3'><div id='mySlider5_value'></div></td></tr></table></div></div>","","","html-vas-custom","103","1001128","0.0-103.0","22222222222222222222222222222222222222222222222222222222222222222222222","2023-11-5 13:52","","","","","49","","attractiveness_scale","90"
"null","<div class='conf_div'><p  style=' margin-bottom:28px; margin-top:0px; ' ><strong>How attractive do you think this face is?</strong></p><img class='central_stim' src='img/9 LM-235.jpg' </img><p  style=' margin-top: -60px;' ><strong><br><br><br><br><br><br><br></strong></p></div>","null","exposition_attractiveness","html-keyboard-response","104","1004136","0.0-104.0","22222222222222222222222222222222222222222222222222222222222222222222222","2023-11-5 13:52","","","","","50","img/9 LM-235.jpg","",""
"2630.4000000001397","<div class='conf_div'><p style='margin-bottom: 28px; margin-top: 0px;'><strong>How attractive do you think this face is?</strong></p><img class='central_stim' src='img/cardback2o.jpg'></img><div id='mySlider5' style='width: 100%; text-align: center;'><table style='text-align: center; margin: auto; padding: 0;'><tr><td class='rightTdVas'>0<br>Very<br>unattractive</td><td><div style='position: relative;'><img src='responseScales/vas_banded.png' id='customSlider2' width='600px' height='60px'><div id='customTick2' class='customTick2'><img id='customTick2_fig' src='responseScales/tick2.png' width='25px' height='25px'></div></div></td><td class='rightTdVas'>100<br>Very<br>attractive</td></tr><tr><td colspan='3'><div id='mySlider5_value'></div></td></tr></table></div></div>","","","html-vas-custom","105","1006769","0.0-105.0","22222222222222222222222222222222222222222222222222222222222222222222222","2023-11-5 13:52","","","","","50","","attractiveness_scale","65"
"null","<div class='conf_div'><p  style=' margin-bottom:28px; margin-top:0px; ' ><strong>How attractive do you think this face is?</strong></p><img class='central_stim' src='img/7 LF-225.jpg' </img><p  style=' margin-top: -60px;' ><strong><br><br><br><br><br><br><br></strong></p></div>","null","exposition_attractiveness","html-keyboard-response","106","1009775","0.0-106.0","22222222222222222222222222222222222222222222222222222222222222222222222","2023-11-5 13:52","","","","","51","img/7 LF-225.jpg","",""
"2595.399999999907","<div class='conf_div'><p style='margin-bottom: 28px; margin-top: 0px;'><strong>How attractive do you think this face is?</strong></p><img class='central_stim' src='img/cardback2o.jpg'></img><div id='mySlider5' style='width: 100%; text-align: center;'><table style='text-align: center; margin: auto; padding: 0;'><tr><td class='rightTdVas'>0<br>Very<br>unattractive</td><td><div style='position: relative;'><img src='responseScales/vas_banded.png' id='customSlider2' width='600px' height='60px'><div id='customTick2' class='customTick2'><img id='customTick2_fig' src='responseScales/tick2.png' width='25px' height='25px'></div></div></td><td class='rightTdVas'>100<br>Very<br>attractive</td></tr><tr><td colspan='3'><div id='mySlider5_value'></div></td></tr></table></div></div>","","","html-vas-custom","107","1012372","0.0-107.0","22222222222222222222222222222222222222222222222222222222222222222222222","2023-11-5 13:52","","","","","51","","attractiveness_scale","76"
"null","<div class='conf_div'><p  style=' margin-bottom:28px; margin-top:0px; ' ><strong>How attractive do you think this face is?</strong></p><img class='central_stim' src='img/8 LM-246.jpg' </img><p  style=' margin-top: -60px;' ><strong><br><br><br><br><br><br><br></strong></p></div>","null","exposition_attractiveness","html-keyboard-response","108","1015382","0.0-108.0","22222222222222222222222222222222222222222222222222222222222222222222222","2023-11-5 13:52","","","","","52","img/8 LM-246.jpg","",""
"3047.3000000002794","<div class='conf_div'><p style='margin-bottom: 28px; margin-top: 0px;'><strong>How attractive do you think this face is?</strong></p><img class='central_stim' src='img/cardback2o.jpg'></img><div id='mySlider5' style='width: 100%; text-align: center;'><table style='text-align: center; margin: auto; padding: 0;'><tr><td class='rightTdVas'>0<br>Very<br>unattractive</td><td><div style='position: relative;'><img src='responseScales/vas_banded.png' id='customSlider2' width='600px' height='60px'><div id='customTick2' class='customTick2'><img id='customTick2_fig' src='responseScales/tick2.png' width='25px' height='25px'></div></div></td><td class='rightTdVas'>100<br>Very<br>attractive</td></tr><tr><td colspan='3'><div id='mySlider5_value'></div></td></tr></table></div></div>","","","html-vas-custom","109","1018433","0.0-109.0","22222222222222222222222222222222222222222222222222222222222222222222222","2023-11-5 13:52","","","","","52","","attractiveness_scale","46"
"null","<div class='conf_div'><p  style=' margin-bottom:28px; margin-top:0px; ' ><strong>How attractive do you think this face is?</strong></p><img class='central_stim' src='img/14 AM-253.jpg' </img><p  style=' margin-top: -60px;' ><strong><br><br><br><br><br><br><br></strong></p></div>","null","exposition_attractiveness","html-keyboard-response","110","1021438","0.0-110.0","22222222222222222222222222222222222222222222222222222222222222222222222","2023-11-5 13:52","","","","","53","img/14 AM-253.jpg","",""
"3100.4000000003725","<div class='conf_div'><p style='margin-bottom: 28px; margin-top: 0px;'><strong>How attractive do you think this face is?</strong></p><img class='central_stim' src='img/cardback2o.jpg'></img><div id='mySlider5' style='width: 100%; text-align: center;'><table style='text-align: center; margin: auto; padding: 0;'><tr><td class='rightTdVas'>0<br>Very<br>unattractive</td><td><div style='position: relative;'><img src='responseScales/vas_banded.png' id='customSlider2' width='600px' height='60px'><div id='customTick2' class='customTick2'><img id='customTick2_fig' src='responseScales/tick2.png' width='25px' height='25px'></div></div></td><td class='rightTdVas'>100<br>Very<br>attractive</td></tr><tr><td colspan='3'><div id='mySlider5_value'></div></td></tr></table></div></div>","","","html-vas-custom","111","1024541","0.0-111.0","22222222222222222222222222222222222222222222222222222222222222222222222","2023-11-5 13:52","","","","","53","","attractiveness_scale","64"
"null","<div class='conf_div'><p  style=' margin-bottom:28px; margin-top:0px; ' ><strong>How attractive do you think this face is?</strong></p><img class='central_stim' src='img/2 AF-256.jpg' </img><p  style=' margin-top: -60px;' ><strong><br><br><br><br><br><br><br></strong></p></div>","null","exposition_attractiveness","html-keyboard-response","112","1027547","0.0-112.0","22222222222222222222222222222222222222222222222222222222222222222222222","2023-11-5 13:52","","","","","54","img/2 AF-256.jpg","",""
"2651.3000000002794","<div class='conf_div'><p style='margin-bottom: 28px; margin-top: 0px;'><strong>How attractive do you think this face is?</strong></p><img class='central_stim' src='img/cardback2o.jpg'></img><div id='mySlider5' style='width: 100%; text-align: center;'><table style='text-align: center; margin: auto; padding: 0;'><tr><td class='rightTdVas'>0<br>Very<br>unattractive</td><td><div style='position: relative;'><img src='responseScales/vas_banded.png' id='customSlider2' width='600px' height='60px'><div id='customTick2' class='customTick2'><img id='customTick2_fig' src='responseScales/tick2.png' width='25px' height='25px'></div></div></td><td class='rightTdVas'>100<br>Very<br>attractive</td></tr><tr><td colspan='3'><div id='mySlider5_value'></div></td></tr></table></div></div>","","","html-vas-custom","113","1030200","0.0-113.0","22222222222222222222222222222222222222222222222222222222222222222222222","2023-11-5 13:52","","","","","54","","attractiveness_scale","64"
"null","<div class='conf_div'><p  style=' margin-bottom:28px; margin-top:0px; ' ><strong>How attractive do you think this face is?</strong></p><img class='central_stim' src='img/20 AM-206.jpg' </img><p  style=' margin-top: -60px;' ><strong><br><br><br><br><br><br><br></strong></p></div>","null","exposition_attractiveness","html-keyboard-response","114","1033210","0.0-114.0","22222222222222222222222222222222222222222222222222222222222222222222222","2023-11-5 13:52","","","","","55","img/20 AM-206.jpg","",""
"2366.3000000002794","<div class='conf_div'><p style='margin-bottom: 28px; margin-top: 0px;'><strong>How attractive do you think this face is?</strong></p><img class='central_stim' src='img/cardback2o.jpg'></img><div id='mySlider5' style='width: 100%; text-align: center;'><table style='text-align: center; margin: auto; padding: 0;'><tr><td class='rightTdVas'>0<br>Very<br>unattractive</td><td><div style='position: relative;'><img src='responseScales/vas_banded.png' id='customSlider2' width='600px' height='60px'><div id='customTick2' class='customTick2'><img id='customTick2_fig' src='responseScales/tick2.png' width='25px' height='25px'></div></div></td><td class='rightTdVas'>100<br>Very<br>attractive</td></tr><tr><td colspan='3'><div id='mySlider5_value'></div></td></tr></table></div></div>","","","html-vas-custom","115","1035579","0.0-115.0","22222222222222222222222222222222222222222222222222222222222222222222222","2023-11-5 13:52","","","","","55","","attractiveness_scale","31"
"null","<div class='conf_div'><p  style=' margin-bottom:28px; margin-top:0px; ' ><strong>How attractive do you think this face is?</strong></p><img class='central_stim' src='img/12 WM-010.jpg' </img><p  style=' margin-top: -60px;' ><strong><br><br><br><br><br><br><br></strong></p></div>","null","exposition_attractiveness","html-keyboard-response","116","1038584","0.0-116.0","22222222222222222222222222222222222222222222222222222222222222222222222","2023-11-5 13:52","","","","","56","img/12 WM-010.jpg","",""
"4656.199999999721","<div class='conf_div'><p style='margin-bottom: 28px; margin-top: 0px;'><strong>How attractive do you think this face is?</strong></p><img class='central_stim' src='img/cardback2o.jpg'></img><div id='mySlider5' style='width: 100%; text-align: center;'><table style='text-align: center; margin: auto; padding: 0;'><tr><td class='rightTdVas'>0<br>Very<br>unattractive</td><td><div style='position: relative;'><img src='responseScales/vas_banded.png' id='customSlider2' width='600px' height='60px'><div id='customTick2' class='customTick2'><img id='customTick2_fig' src='responseScales/tick2.png' width='25px' height='25px'></div></div></td><td class='rightTdVas'>100<br>Very<br>attractive</td></tr><tr><td colspan='3'><div id='mySlider5_value'></div></td></tr></table></div></div>","","","html-vas-custom","117","1043242","0.0-117.0","22222222222222222222222222222222222222222222222222222222222222222222222","2023-11-5 13:52","","","","","56","","attractiveness_scale","45"
"null","<div class='conf_div'><p  style=' margin-bottom:28px; margin-top:0px; ' ><strong>How attractive do you think this face is?</strong></p><img class='central_stim' src='img/13 BF-244.jpg' </img><p  style=' margin-top: -60px;' ><strong><br><br><br><br><br><br><br></strong></p></div>","null","exposition_attractiveness","html-keyboard-response","118","1046253","0.0-118.0","22222222222222222222222222222222222222222222222222222222222222222222222","2023-11-5 13:52","","","","","57","img/13 BF-244.jpg","",""
"6978.399999999907","<div class='conf_div'><p style='margin-bottom: 28px; margin-top: 0px;'><strong>How attractive do you think this face is?</strong></p><img class='central_stim' src='img/cardback2o.jpg'></img><div id='mySlider5' style='width: 100%; text-align: center;'><table style='text-align: center; margin: auto; padding: 0;'><tr><td class='rightTdVas'>0<br>Very<br>unattractive</td><td><div style='position: relative;'><img src='responseScales/vas_banded.png' id='customSlider2' width='600px' height='60px'><div id='customTick2' class='customTick2'><img id='customTick2_fig' src='responseScales/tick2.png' width='25px' height='25px'></div></div></td><td class='rightTdVas'>100<br>Very<br>attractive</td></tr><tr><td colspan='3'><div id='mySlider5_value'></div></td></tr></table></div></div>","","","html-vas-custom","119","1053234","0.0-119.0","22222222222222222222222222222222222222222222222222222222222222222222222","2023-11-5 13:52","","","","","57","","attractiveness_scale","46"
"null","<div class='conf_div'><p  style=' margin-bottom:28px; margin-top:0px; ' ><strong>How attractive do you think this face is?</strong></p><img class='central_stim' src='img/1 AF-224.jpg' </img><p  style=' margin-top: -60px;' ><strong><br><br><br><br><br><br><br></strong></p></div>","null","exposition_attractiveness","html-keyboard-response","120","1056250","0.0-120.0","22222222222222222222222222222222222222222222222222222222222222222222222","2023-11-5 13:52","","","","","58","img/1 AF-224.jpg","",""
"2507.399999999907","<div class='conf_div'><p style='margin-bottom: 28px; margin-top: 0px;'><strong>How attractive do you think this face is?</strong></p><img class='central_stim' src='img/cardback2o.jpg'></img><div id='mySlider5' style='width: 100%; text-align: center;'><table style='text-align: center; margin: auto; padding: 0;'><tr><td class='rightTdVas'>0<br>Very<br>unattractive</td><td><div style='position: relative;'><img src='responseScales/vas_banded.png' id='customSlider2' width='600px' height='60px'><div id='customTick2' class='customTick2'><img id='customTick2_fig' src='responseScales/tick2.png' width='25px' height='25px'></div></div></td><td class='rightTdVas'>100<br>Very<br>attractive</td></tr><tr><td colspan='3'><div id='mySlider5_value'></div></td></tr></table></div></div>","","","html-vas-custom","121","1058761","0.0-121.0","22222222222222222222222222222222222222222222222222222222222222222222222","2023-11-5 13:52","","","","","58","","attractiveness_scale","82"
"null","<div class='conf_div'><p  style=' margin-bottom:28px; margin-top:0px; ' ><strong>How attractive do you think this face is?</strong></p><img class='central_stim' src='img/4 BM-229.jpg' </img><p  style=' margin-top: -60px;' ><strong><br><br><br><br><br><br><br></strong></p></div>","null","exposition_attractiveness","html-keyboard-response","122","1061767","0.0-122.0","22222222222222222222222222222222222222222222222222222222222222222222222","2023-11-5 13:52","","","","","59","img/4 BM-229.jpg","",""
"2072","<div class='conf_div'><p style='margin-bottom: 28px; margin-top: 0px;'><strong>How attractive do you think this face is?</strong></p><img class='central_stim' src='img/cardback2o.jpg'></img><div id='mySlider5' style='width: 100%; text-align: center;'><table style='text-align: center; margin: auto; padding: 0;'><tr><td class='rightTdVas'>0<br>Very<br>unattractive</td><td><div style='position: relative;'><img src='responseScales/vas_banded.png' id='customSlider2' width='600px' height='60px'><div id='customTick2' class='customTick2'><img id='customTick2_fig' src='responseScales/tick2.png' width='25px' height='25px'></div></div></td><td class='rightTdVas'>100<br>Very<br>attractive</td></tr><tr><td colspan='3'><div id='mySlider5_value'></div></td></tr></table></div></div>","","","html-vas-custom","123","1063842","0.0-123.0","22222222222222222222222222222222222222222222222222222222222222222222222","2023-11-5 13:52","","","","","59","","attractiveness_scale","72"
